,ax,ay,az,gx,gy,gz,time
0,-0.394230856651488,-0.252170110860888,0.886896543996183,-0.190734863281247,-2.86102294921875,-0.511169433593761,0.0
1,-0.394231572724085,-0.256225522168689,0.890584799733138,-0.122073242894119,-2.82288037215368,-0.907875238664327,0.0033333333333333335
2,-0.39558314064319,-0.258806928466656,0.893410947367719,-1.48944945496526e-05,-2.66267730952444,-1.2740877861848,0.006666666666666667
3,-0.395707020130382,-0.253277739700082,0.890587108003366,0.190712115657293,-2.79993004900024,-1.41906388317805,0.01
4,-0.39619623975163,-0.252414814061836,0.880138459472576,0.465341122595018,-3.09752062912805,-1.50297039681707,0.013333333333333334
5,-0.393613468437917,-0.251676984271495,0.87472041543163,0.617989258139023,-2.96789811448251,-1.3352298210824,0.016666666666666666
6,-0.392867568937712,-0.25105644417209,0.873357133381206,0.65610172452532,-2.61695766406002,-1.01474550475425,0.02
7,-0.400601203494071,-0.252896776316959,0.872970671185904,0.709537475660871,-2.32702209585056,-0.679140993683738,0.023333333333333334
8,-0.403789191896791,-0.251906995158677,0.873933235359666,0.511276755192992,-2.0981478890533,-0.305244467073515,0.02666666666666667
9,-0.40021603997454,-0.251900467184295,0.875629185315438,0.312809977254567,-2.0065163572988,-0.343221922966582,0.03
10,-0.393087471396877,-0.254722458757209,0.882132384522424,0.381416625735841,-1.94555401637807,-0.457795532370995,0.03333333333333333
11,-0.389889467797921,-0.252885689251837,0.882878396830236,0.434892944357296,-1.95305517569582,-0.419610880526735,0.03666666666666667
12,-0.39100011894025,-0.249074219585171,0.885949262052188,0.366248901308178,-2.05230080160489,-0.259538614692487,0.04
13,-0.390511955269382,-0.250674102652957,0.891248283255499,0.228963866866043,-2.03706884757589,-0.0534399412723095,0.043333333333333335
14,-0.399965129482365,-0.247852312521775,0.886704853969099,-0.0608441987284339,-2.14373500644023,0.31248936141866,0.04666666666666667
15,-0.403786457809965,-0.247597887565435,0.877731143891667,-0.36610099368828,-2.34215344292907,0.336007484551343,0.05
16,-0.397883247165077,-0.254724513739249,0.871951087571969,-0.2672545755402,-2.56330932772485,-0.571544012481913,0.05333333333333334
17,-0.403534184526034,-0.256823146006389,0.874663388372564,-0.0076914869679867,-2.65510025965984,-1.1063420401642,0.056666666666666664
18,-0.40625624147629,-0.254123962796828,0.885364808865436,0.0914964606302784,-2.8149745922651,-0.671836908707773,0.06
19,-0.402574583118503,-0.252776608887403,0.896202653161164,0.0916120597758177,-3.1660306418331,0.197711678403505,0.06333333333333334
20,-0.403441451551702,-0.254499474422151,0.900648395806186,0.0610143638976984,-3.34923142598569,0.663809305099504,0.06666666666666667
21,-0.402716946317085,-0.255737500352939,0.896498435774529,0.0610569658209972,-3.50936881737802,0.427529618172964,0.07
22,-0.397067418482674,-0.256349227631633,0.890348665966786,0.0457763671875,-3.6087150266761,-0.0682194283821791,0.07333333333333333
23,-0.39386362032269,-0.260401021865064,0.883470336785514,0.106716147403929,-3.67724894402054,-0.724232146271523,0.07666666666666666
24,-0.399135790769045,-0.259179372236376,0.875832511601925,0.160229715769794,-3.883150495976,-1.28141508529785,0.08
25,-0.400131281990716,-0.254012605905738,0.875333006683032,0.282067630867069,-3.92166405973722,-1.49533544967921,0.08333333333333333
26,-0.397538023991735,-0.24922154872985,0.872628612068451,0.274900264105344,-3.5633979202222,-1.27452576951823,0.08666666666666667
27,-0.392752786337805,-0.245770658602199,0.870394758139221,0.160175415831481,-3.11312792334815,-0.908135208725774,0.09
28,-0.391869068475805,-0.245401306563285,0.871620452772562,0.0612665970650163,-2.86876806415751,-0.747738524266254,0.09333333333333334
29,-0.39507712013142,-0.246503001710041,0.873212916135945,-0.0762639979919273,-2.7238585579194,-0.709548665066536,0.09666666666666666
30,-0.394208509946866,-0.249573610812185,0.877261707123884,-0.0001857872356163,-2.52556182388827,-0.755201682706307,0.1
31,-0.393722942134678,-0.250683754739282,0.882912870809299,0.0610991197659362,-2.18248656230702,-0.671674554571713,0.10333333333333333
32,-0.387704559762955,-0.251905994988838,0.882796941417733,-0.0608371623900174,-2.0368668454721,-0.442702876672483,0.10666666666666667
33,-0.387556392736086,-0.257426552044908,0.881296559670672,-0.099301185590008,-1.93827440528181,-0.762021015850295,0.11
34,-0.393942043083315,-0.258296551257319,0.884718262109842,-0.0381644893632791,-1.70147759741795,-1.38805933689069,0.11333333333333333
35,-0.397375097689189,-0.252882752034445,0.883478838562316,-0.106631270273726,-1.70122880325411,-1.4347227288353,0.11666666666666667
36,-0.39676359611013,-0.247107033877634,0.882351431051146,-0.106996862694752,-1.74714988158198,-0.855493019489163,0.12
37,-0.400309055063098,-0.246232782058271,0.887631095134438,0.0912480538138146,-1.72428124913265,-0.335959954866037,0.12333333333333334
38,-0.400950048144009,-0.247471329760558,0.891327176343045,0.251672263809138,-1.83074186918924,-0.0538554380404659,0.12666666666666668
39,-0.395293186517902,-0.248938971795354,0.887296256069415,0.130120961860436,-2.11292103032706,0.0003209560603323,0.13
40,-0.392477972284928,-0.256066095271139,0.8794482215716,0.068397162060695,-2.31921252732128,-0.198158574181304,0.13333333333333333
41,-0.391982815041824,-0.258177104124148,0.87760350048772,0.175454997246283,-2.51727865586315,-0.533341000123607,0.13666666666666666
42,-0.397633265604716,-0.258412851319723,0.876277785927184,0.259183558244332,-2.6018178053926,-1.16623966977223,0.14
43,-0.405627958473249,-0.256226268740536,0.875539329457942,0.396551762095679,-2.44927868063407,-1.48027929259182,0.14333333333333334
44,-0.403449695535128,-0.249095065293968,0.881076922975404,0.336055004183208,-2.35750551295676,-1.24411117300555,0.14666666666666667
45,-0.394718368113818,-0.251410858220027,0.886126173744711,0.145166498782497,-2.33464094938222,-0.7866827588836,0.15
46,-0.393600387982843,-0.252542716300322,0.89079520483784,0.251226759089416,-2.3573648100602,-0.549174686134739,0.15333333333333332
47,-0.398387972914191,-0.249825559855572,0.888853288929594,0.526114550484989,-2.25873509656405,-0.655934900659032,0.15666666666666668
48,-0.399387321184958,-0.24946297127767,0.882451009085811,0.564772293215759,-2.18941449532758,-0.701953571350815,0.16
49,-0.396923148797889,-0.250434739872426,0.881827943469163,0.511144287746495,-2.44080274966588,-0.549769031500593,0.16333333333333333
50,-0.39667630637819,-0.251306610872175,0.882691215760164,0.450365167453182,-2.60170049852606,-0.313138683717096,0.16666666666666666
51,-0.395081160723755,-0.250683124766784,0.883908066122447,0.313040643374826,-2.39625779639537,-0.418910296438022,0.17
52,-0.397029376257309,-0.250443308916183,0.883182656274943,0.0920861678810143,-2.22012713691845,-0.618007628706551,0.17333333333333334
53,-0.397421874312649,-0.250313924798454,0.879739402682651,-0.11425065597621,-2.227783203125,-0.633158205239804,0.17666666666666667
54,-0.390417473012146,-0.246767878993391,0.879112088079164,-0.304677381158038,-2.27339343694851,-0.716941574785517,0.18
55,-0.390878198221612,-0.243184312294888,0.882787957277991,-0.640136005537998,-2.14450840585821,-0.603370710545714,0.18333333333333332
56,-0.396908797280603,-0.242945800267474,0.882197538932567,-0.854434775274612,-1.86957483962127,-0.214426818030434,0.18666666666666668
57,-0.401204127840589,-0.244527430748387,0.873474387105192,-1.09775637083871,-1.89162240819731,0.258406113513041,0.19
58,-0.403667706652411,-0.249074533293957,0.870119941515603,-1.33511431963736,-2.20415193624647,0.138815268132063,0.19333333333333333
59,-0.406113103972136,-0.254963032384081,0.871967049888548,-1.01600944610805,-2.5400139720322,-0.662094567478072,0.19666666666666666
60,-0.404543248201359,-0.254016687231679,0.882615842687886,-0.724638777718308,-2.73873745286813,-0.870611711964977,0.2
61,-0.402677367721353,-0.248838153931291,0.894214556340552,-0.846519052214945,-2.9063305790147,-0.162248480519641,0.20333333333333334
62,-0.403807329050711,-0.250433805333632,0.898770309399967,-1.11312941511166,-3.08961896523718,0.578817735773876,0.20666666666666667
63,-0.406377230277082,-0.25388102616951,0.901761191396408,-1.2969970703125,-3.24213774562178,0.801183224915652,0.21
64,-0.401036191664579,-0.258062753703691,0.899086569923434,-1.24382073350612,-3.29602953744993,0.284417971842568,0.21333333333333335
65,-0.393624241524778,-0.258824083456698,0.890647468099672,-1.09143610472755,-3.19701586096523,-0.760543034153192,0.21666666666666667
66,-0.395112384273846,-0.260279647738461,0.880688226040728,-0.984225686737429,-3.23439019036349,-1.62367555470291,0.22
67,-0.392047399509829,-0.25944972415185,0.876613189456751,-0.855041000548437,-3.25812877381455,-2.05179261667334,0.22333333333333333
68,-0.392018879705506,-0.255250983528828,0.870726696068713,-0.74761104521275,-3.2042064654255,-2.03764010006663,0.22666666666666666
69,-0.393505405697132,-0.252799373637762,0.867728504714563,-0.724969070639873,-2.98425875684816,-1.64155595541661,0.23
70,-0.391769597362544,-0.249834414515651,0.871760113168997,-0.542367717946635,-2.51110977344486,-1.41125885506339,0.23333333333333334
71,-0.391387055971147,-0.248354004332741,0.874809443023193,-0.358763219233359,-2.14455023308676,-1.32050295320592,0.23666666666666666
72,-0.38906148358729,-0.252501575343168,0.878483913799869,-0.335619671650461,-1.99130881651852,-1.06870473617131,0.24
73,-0.390746632732648,-0.258051353873461,0.880334399621873,-0.290215811960439,-1.94568236782684,-1.00678125835206,0.24333333333333335
74,-0.397384678707855,-0.258296908604621,0.879582825756289,-0.175741101785517,-1.8162502314091,-1.04534063402415,0.24666666666666667
75,-0.394473363151107,-0.258293424777982,0.8827556965847,-0.342210032887113,-1.66351496533502,-1.03752091686937,0.25
76,-0.393932615824248,-0.251818293268156,0.882674919376802,-0.427945903143932,-1.6628969814152,-1.12117109139678,0.25333333333333335
77,-0.395209014585189,-0.24955081293777,0.878245378938555,-0.251966954076311,-1.61039304972893,-1.190185546875,0.25666666666666665
78,-0.396883842557275,-0.251432756578396,0.879829463351787,-0.145317555758995,-1.55607732022812,-1.10670105773322,0.26
79,-0.398649825558349,-0.252136289106301,0.882050656704681,-0.0383489932947922,-1.71608851587104,-0.825025116695419,0.2633333333333333
80,-0.391393947788745,-0.253025077222252,0.885580275323351,0.0834732997361198,-1.85373830740846,-0.564902497208958,0.26666666666666666
81,-0.391595071687435,-0.253727363055937,0.890499020930089,0.18302262605719,-2.05143728063174,-0.298664763071688,0.27
82,-0.399088763056016,-0.253517707596985,0.891727823684197,0.145252005784024,-2.28081159524197,-0.228127096733938,0.2733333333333333
83,-0.398028437138178,-0.253966202976809,0.888182524123558,0.0687918664765585,-2.39537525142188,-0.495189188924502,0.27666666666666667
84,-0.398950209254823,-0.256698375672675,0.884104543964531,0.0988814986850919,-2.4717520394272,-0.807685088125672,0.28
85,-0.402194033243279,-0.249597866334084,0.881416425496768,0.129830074382648,-2.47968359000765,-0.931133779082896,0.2833333333333333
86,-0.406322419211506,-0.249167775027802,0.877122662350894,0.19783668509472,-2.28220014588616,-0.877336406700602,0.2866666666666667
87,-0.407504788958584,-0.25265384240308,0.877598526365336,0.274747149129992,-2.03744859686622,-0.968443902441292,0.29
88,-0.402436058276987,-0.252390204497393,0.882282204751289,0.12287998151321,-1.87737083402964,-0.954259077360235,0.29333333333333333
89,-0.399152366398134,-0.252292915985642,0.885133626889137,0.121251488518519,-1.66393585135159,-0.8544921875,0.2966666666666667
90,-0.395812607722411,-0.248854093969791,0.884786251664308,0.130481687150459,-1.54872109101321,-0.9454929359085,0.3
91,-0.397529182515306,-0.247246457800777,0.879764994632069,0.128909080553128,-1.67013979074541,-0.961768785336395,0.30333333333333334
92,-0.398150086526338,-0.246878024615995,0.874212226404562,0.0546751950481864,-1.9824201608448,-0.733362195984768,0.30666666666666664
93,-0.396553030670931,-0.249313680360609,0.877605704613925,-0.122260411134347,-2.18958870581016,-0.344796018322438,0.31
94,-0.397516457537504,-0.256431765031273,0.879621902546571,-0.273505404694534,-2.27307923763314,-0.387321890180115,0.31333333333333335
95,-0.399744026292545,-0.258197736621233,0.878615030489046,-0.533572198414661,-2.40291948420276,-0.80784206652139,0.31666666666666665
96,-0.398282208870528,-0.253526235351051,0.882917394580291,-0.595190874410763,-2.42634366288403,-1.18861593130278,0.32
97,-0.397407562138408,-0.248860307607886,0.884291881159757,-0.534354971763377,-2.3198315284598,-1.40400683013392,0.3233333333333333
98,-0.401079378133146,-0.247849854309296,0.884400697570612,-0.480701923174079,-2.11419343614684,-1.08527659624,0.32666666666666666
99,-0.3965982974667,-0.249455694829485,0.890144889135198,-0.510916552020364,-1.86996030487641,-0.550934848319673,0.33
100,-0.390390004757323,-0.24810968711323,0.892514345883798,-0.511424858213881,-1.73960412297305,-0.0172000161754927,0.3333333333333333
101,-0.394308554438527,-0.246257414758697,0.882951096713663,-0.632156281892886,-1.86822138302214,0.441369825078262,0.33666666666666667
102,-0.395313232981126,-0.252836619605256,0.870267294403277,-0.79345703125,-2.15055141924349,0.527001346226201,0.34
103,-0.399681846776335,-0.258180177045423,0.867502700548097,-0.407041058511852,-2.57673614298382,-0.0575628466133381,0.3433333333333333
104,-0.40159927187777,-0.258157017822284,0.878774387557227,-0.121326641440127,-2.97472019612763,-0.829744826256568,0.3466666666666667
105,-0.398500394018244,-0.259165355228116,0.890752427943886,-0.319791034663292,-3.12015422342741,-0.765299083838762,0.35
106,-0.403165861643405,-0.255379333522381,0.894733332064606,-0.487739884198833,-3.17371985183977,-0.556025478919267,0.35333333333333333
107,-0.406644424142766,-0.253636507198527,0.895499730503734,-0.67062168609749,-3.10576467130287,-0.55030001966037,0.3566666666666667
108,-0.403358848605246,-0.255124705452557,0.893450212070172,-0.72517855706044,-3.021240234375,-0.586194841533555,0.36
109,-0.39917142618166,-0.257450627255201,0.88550347081746,-0.663812986626912,-2.83947066342089,-0.550874953678541,0.36333333333333334
110,-0.401475539888751,-0.253212032875015,0.878710894134978,-0.663701153201239,-2.79134732012231,-0.229668230182648,0.36666666666666664
111,-0.402495700850033,-0.247747286471376,0.877100097229799,-0.603232284610475,-2.77066048700778,-0.061488593264867,0.37
112,-0.399522577805796,-0.249828668053168,0.879018437670463,-0.503768792007329,-2.66983058004784,0.0984386818355561,0.37333333333333335
113,-0.392795207943531,-0.252521871062043,0.880497846287295,-0.359446995652076,-2.73889493987319,0.15293407169833,0.37666666666666665
114,-0.391229445509336,-0.252052649357221,0.880095153106213,-0.387993217450586,-2.6330141951048,-0.0748970143948187,0.38
115,-0.394463515376285,-0.250552262121888,0.879722848739576,-0.443209451583533,-2.37385726643955,-0.17612192892553,0.38333333333333336
116,-0.38894790615489,-0.252264816449602,0.878106986626866,-0.366092492152799,-2.14451131269086,-0.235385999670339,0.38666666666666666
117,-0.38973366482308,-0.254961393678171,0.879430492285069,-0.540432654776801,-2.0447971969409,-0.283064104334599,0.39
118,-0.393831259507341,-0.255350499654548,0.883232591783836,-0.694335142236048,-1.93101993500613,-0.0847064584436276,0.3933333333333333
119,-0.395523915597509,-0.251673807786109,0.883384985231756,-0.747194676049331,-1.71752499705594,-0.0225844410855195,0.39666666666666667
120,-0.39946963943092,-0.253709198003971,0.877635249574021,-0.929806019036597,-1.64001353866378,-0.333488103379218,0.4
121,-0.400473897900984,-0.25683432364587,0.874419034760821,-0.969612528392521,-1.65576391044228,-0.670892592987258,0.4033333333333333
122,-0.397918859540739,-0.255354518768357,0.878963600164044,-1.03635216965618,-1.51161650646256,-0.520542509356351,0.4066666666666667
123,-0.398619513986642,-0.254017501309039,0.885010316375089,-1.06155314980744,-1.56258187130832,-0.221943053735695,0.41
124,-0.399030485147641,-0.251677564003724,0.890888884636884,-0.900521720881055,-1.72436974715928,-0.0238375568195823,0.41333333333333333
125,-0.399345293383445,-0.253727824256288,0.893735784281744,-0.627651956610089,-1.93595220620539,0.0234623850133845,0.4166666666666667
126,-0.398164907264416,-0.257671063853985,0.891867783492136,-0.283123611628355,-2.34074501945079,-0.280294025876615,0.42
127,-0.397596793640219,-0.256948197516694,0.890366799272405,-0.167976314440368,-2.74463750995698,-0.632267485447242,0.42333333333333334
128,-0.404234748597138,-0.256309627896656,0.884868780866279,-0.19797230189781,-3.05110455264218,-0.906526103517335,0.4266666666666667
129,-0.40148304537386,-0.257300631246158,0.879908118656081,-0.160941465702691,-3.08267039819579,-1.09080591418336,0.43
130,-0.398341492850709,-0.253526910144781,0.878822004840154,-0.159487509906977,-2.93061630486271,-1.18195906350344,0.43333333333333335
131,-0.399615208232028,-0.249202787342491,0.873947261200211,-0.259265710434846,-2.78506326297539,-1.07728222062428,0.43666666666666665
132,-0.400695541155871,-0.249078621474812,0.872321101294469,-0.206599896152339,-2.65583762195312,-0.832210247714839,0.44
133,-0.401478831749234,-0.253961071327603,0.877853619449861,-0.114644525066325,-2.5634765625,-0.626831994147948,0.44333333333333336
134,-0.398161826278854,-0.255871569397885,0.880968559540711,-0.00838154859185,-2.51811046116374,-0.677306672234432,0.44666666666666666
135,-0.399354087139972,-0.256188925425096,0.882425514880349,0.21994360263304,-2.56264992748534,-0.952916567642813,0.45
136,-0.398792783603955,-0.256365438294174,0.880872692361222,0.449370933877486,-2.74574929292317,-0.977117658884555,0.4533333333333333
137,-0.394953497292147,-0.253264931272945,0.879826484073159,0.511379144003503,-2.68694494439836,-0.718980576155361,0.45666666666666667
138,-0.397376153864006,-0.249608101209611,0.885830099264973,0.427809390384137,-2.59343084399086,-0.360060196633359,0.46
139,-0.399502980656018,-0.249908966441643,0.881275676164627,0.373769411342635,-2.57188608460601,-0.0925456240156092,0.4633333333333333
140,-0.396565521765321,-0.254973478928038,0.87552274408334,0.389027691795786,-2.45695075625436,0.128628267561786,0.4666666666666667
141,-0.397743808801311,-0.257794138838425,0.876180485356254,0.192677186778691,-2.46393474405719,0.251698081623937,0.47
142,-0.397077605731544,-0.258070980416418,0.877241643009133,0.0074120549812685,-2.46465666617705,0.0704757136977618,0.47333333333333333
143,-0.395657234695003,-0.252198153575865,0.88264590257791,-0.0299339371169336,-2.50171185498992,-0.227860464173384,0.4766666666666667
144,-0.39545682675804,-0.249430152667906,0.885713150086729,0.112457397114107,-2.3671692892775,-0.49436790608875,0.48
145,-0.393442604056684,-0.251038898293179,0.885339500157055,0.244880348447055,-2.21193263530486,-0.384132730971898,0.48333333333333334
146,-0.39394528688555,-0.253711379739473,0.875455043658977,0.0545229760295727,-2.47754223689677,0.044286748106403,0.4866666666666667
147,-0.39649100248471,-0.255591969852327,0.864940632347727,0.188260207688962,-2.78375413958202,-0.22468242038695,0.49
148,-0.40032936811911,-0.254724960857651,0.870032636314227,0.616244499057977,-2.8839111328125,-0.928068198593463,0.49333333333333335
149,-0.400360573681465,-0.252548042180294,0.87884062313924,0.67260282726359,-3.01987211229721,-1.00150286671043,0.49666666666666665
150,-0.396713805171295,-0.252147656007252,0.888651384853335,0.564422164529604,-3.10569918195889,-0.514000503077334,0.5
151,-0.399344763270128,-0.256332179050059,0.896747869556055,0.534519761192276,-3.21790996416999,-0.123148648511145,0.5033333333333333
152,-0.40506248298677,-0.256381796452577,0.899565186812237,0.322140287735688,-3.31193255266395,-0.136088579800182,0.5066666666666667
153,-0.403726229390037,-0.25499979424439,0.89329903397358,0.17524195056027,-3.28017140112054,-0.402875126985879,0.51
154,-0.399803999535148,-0.256475521647358,0.88167400325845,0.236118481324542,-3.18294996627924,-0.639926542678901,0.5133333333333333
155,-0.392202151680204,-0.259280151291111,0.874672878460434,0.221805850473579,-3.13465339264728,-0.921180277326502,0.5166666666666667
156,-0.391841969927117,-0.254697240964807,0.874308095529961,0.190496162138632,-3.01591828422239,-1.16674039394848,0.52
157,-0.396554812674084,-0.251872680948254,0.879851744214354,0.251369641246809,-2.72441452856824,-1.31129495149234,0.5233333333333333
158,-0.396915262025313,-0.248676717102323,0.880603324517854,0.25217294086243,-2.40591855812954,-1.23018595765468,0.5266666666666666
159,-0.394615443995464,-0.244262445801213,0.877188180000661,0.326847571709993,-2.15903755946817,-0.969825127100172,0.53
160,-0.395042455028636,-0.249437204179195,0.876033342943016,0.367026952349316,-2.20448701210659,-0.809531835161816,0.5333333333333333
161,-0.395237827687976,-0.250453560133725,0.875835596290846,0.282369707750529,-2.25058927662447,-0.664496315067265,0.5366666666666666
162,-0.387148677847074,-0.25128488052442,0.876160911045349,0.21428399650403,-2.1149120405252,-0.663013755886091,0.54
163,-0.384124915311021,-0.251689685527571,0.878645671002273,0.0922177528788293,-1.89292111687979,-0.709783073345186,0.5433333333333333
164,-0.395226012997643,-0.250319208458809,0.876574954076998,-0.067577283790999,-1.80825013982858,-0.664008231985731,0.5466666666666666
165,-0.401994479291619,-0.24862236156389,0.873740487656952,-0.281025429681127,-1.68735835938137,-0.723866890620327,0.55
166,-0.399024060973587,-0.248705134228732,0.873245164600879,-0.532533860649092,-1.59428949760818,-0.612552544166589,0.5533333333333333
167,-0.402541419255086,-0.251423247924843,0.876656501787999,-0.724196348216157,-1.66269703731028,-0.359177675221343,0.5566666666666666
168,-0.402146678586343,-0.249740651392943,0.885362421573028,-0.702761000472198,-1.71652809917153,-0.31271950542153,0.56
169,-0.40508685574654,-0.249565181301132,0.891445506132872,-0.572807842627234,-1.82984818193303,-0.101681319009257,0.5633333333333334
170,-0.409756634883425,-0.248527431926286,0.892560277328182,-0.352859275162675,-2.20186095428665,-0.0212411196038262,0.5666666666666667
171,-0.403129090517057,-0.249299389747952,0.892574196610115,-0.160478873719545,-2.65293658836864,-0.243268663122351,0.57
172,-0.398902689096052,-0.254006893663271,0.891319505645486,-0.144870791296637,-2.91355166296637,-0.456184985526962,0.5733333333333334
173,-0.399117908686366,-0.256191286721979,0.887624974899734,-0.0696348982523383,-3.10384037312181,-0.708210490309311,0.5766666666666667
174,-0.400093649498856,-0.258533301041879,0.88133085479385,0.052962151639698,-3.47598735771245,-0.952166042137473,0.58
175,-0.400455395127863,-0.258782284620071,0.877351921989609,0.0387715870323648,-3.66300168125159,-1.40006090749331,0.5833333333333334
176,-0.398753922303343,-0.255859389088704,0.877325130375131,0.0148998321244717,-3.4802602555331,-1.79210006173319,0.5866666666666667
177,-0.393491816879015,-0.252518851295722,0.880505279057536,0.0759329539370803,-3.25156603581418,-1.74848506531407,0.59
178,-0.396937074304143,-0.2499581905416,0.881304866195349,0.0691183330472688,-2.87927670123697,-1.26329716386323,0.5933333333333334
179,-0.401724499558415,-0.250401237789225,0.881400327992972,-0.0071730692184818,-2.60943545981261,-0.764399694125858,0.5966666666666667
180,-0.394635045753103,-0.253014702436077,0.881340795718769,0.0145245996872883,-2.61660700320305,-0.550417690312818,0.6
181,-0.390154557366512,-0.248286585161925,0.881062706083165,0.204424853562495,-2.50410248731251,-0.533134794374997,0.6033333333333334
182,-0.396960376974355,-0.247923979347624,0.87855321966022,0.343229963015652,-2.3801855119688,-0.625424769781304,0.6066666666666667
183,-0.395173099320865,-0.250705711341159,0.877468112066608,0.283127293155764,-2.3956298828125,-0.497683335030223,0.61
184,-0.390714296342621,-0.248471013844572,0.883975900846242,0.213623046875,-2.25245374079533,-0.215311592842288,0.6133333333333333
185,-0.39372560282269,-0.251374800364235,0.88817098293747,0.100596879685897,-2.20366890218889,-0.242065657189851,0.6166666666666667
186,-0.395021203985746,-0.25399682118388,0.886840799769275,-0.0830699118918173,-2.3040771484375,-0.148277382573488,0.62
187,-0.400175042961481,-0.253734434754735,0.877545403074704,-0.152587890625,-2.32667933021923,0.174808736657368,0.6233333333333333
188,-0.402301111098214,-0.256169524632123,0.873363198117805,-0.114920130702193,-2.37998772356325,0.0028752764006605,0.6266666666666667
189,-0.398655573830552,-0.253921131092952,0.878062401797485,-0.0536948151868611,-2.42595475862543,-0.130952272059731,0.63
190,-0.398830089488982,-0.251269527956635,0.879225746807314,0.0071450957043256,-2.45647131953173,-0.248961086335089,0.6333333333333333
191,-0.40645427170286,-0.25496535036482,0.873904709585794,0.0533083933440163,-2.63009637741184,-0.156677362363816,0.6366666666666667
192,-0.410697385483691,-0.257324733291481,0.870289113596259,0.06103515625,-2.96558330202235,0.0473423989328209,0.64
193,-0.405488002806172,-0.256977755309906,0.871063134144638,0.264372397571116,-3.34664778819612,-0.626057597773295,0.6433333333333333
194,-0.398805004390776,-0.255138418020308,0.878821718375484,0.721528971777035,-3.52517585024862,-1.25796004983124,0.6466666666666666
195,-0.402285460177689,-0.254383938458248,0.888253013418192,0.938912541404388,-3.75781240548178,-1.01125499623436,0.65
196,-0.408477067116416,-0.250629990650107,0.89591739209751,0.945445453346138,-4.0283203125,-0.264994453665208,0.6533333333333333
197,-0.408991546775615,-0.247247337442686,0.901424584225452,1.02946616156463,-4.00573338899872,0.536766430208336,0.6566666666666666
198,-0.402659886440488,-0.251385774362491,0.89931300342423,0.864846655315938,-3.9825439453125,0.56168944686941,0.66
199,-0.396321378698224,-0.25559685333858,0.896009386560457,0.919606434547999,-3.93737620162213,-0.223201349964299,0.6633333333333333
200,-0.39327133159443,-0.253553711771749,0.888053916173486,1.09985616280643,-3.92110100562702,-0.723874967738926,0.6666666666666666
201,-0.388720628145588,-0.248871560968376,0.877727204588996,0.97697231787287,-3.96708024731356,-0.688079870367547,0.67
202,-0.390366098318669,-0.247370038159192,0.871422215107008,0.878307038791853,-3.9825439453125,-0.609939710189732,0.6733333333333333
203,-0.392411568992792,-0.249078940887314,0.867755305352333,0.868923203067178,-3.83955141127014,-1.0096393599974,0.6766666666666666
204,-0.393696315669048,-0.24935907114299,0.870725512082285,0.960887789752441,-3.55716949689526,-1.45627853280237,0.68
205,-0.399238083671563,-0.246904805231402,0.876691523468207,0.886472610303575,-3.18469667560524,-1.39795551061416,0.6833333333333333
206,-0.399423519298576,-0.24747376164194,0.87597810211646,0.635234698877996,-2.89227550994847,-1.10846715484542,0.6866666666666666
207,-0.394517524399499,-0.246196565441718,0.876192537851167,0.495805138406942,-2.68765699748616,-0.86328214939864,0.69
208,-0.395658002905955,-0.247076304977956,0.884239522917343,0.232698366349171,-2.20945365307852,-0.83838528056824,0.6933333333333334
209,-0.394678523256644,-0.248530039641899,0.889274959274651,0.0068837311302018,-1.83169382755804,-0.885222812311014,0.6966666666666667
210,-0.385087472577337,-0.246509519622813,0.889229441109982,-0.096934457906801,-1.83793485836477,-0.659124824353432,0.7
211,-0.383386460101286,-0.250052101855006,0.88782838330173,-0.35718351566661,-1.94474282153683,-0.382330051056124,0.7033333333333334
212,-0.388924358951856,-0.25206519302429,0.884715322619186,-0.585626542998376,-2.05907213006909,-0.531032240398061,0.7066666666666667
213,-0.390211508736487,-0.250716708881799,0.882422540876419,-0.702121412435798,-2.1360133531892,-0.860493215325262,0.71
214,-0.39174468675236,-0.251783954544132,0.880165127591137,-0.694165835954002,-2.09884696082199,-1.03672512513202,0.7133333333333334
215,-0.397756364700357,-0.253164024102961,0.882455468845918,-0.762062853132225,-1.99955881718208,-1.06103371483923,0.7166666666666667
216,-0.398811113176725,-0.247940083979421,0.88250970440046,-0.974360827831105,-1.93808637815439,-0.856914026885785,0.72
217,-0.398024040703893,-0.244047082332378,0.884265932344443,-1.17426320450574,-1.77975017791932,-0.558825868483732,0.7233333333333334
218,-0.397450918257207,-0.252790439342294,0.886181319865099,-1.25829459352054,-1.71539166043269,-0.652794904873242,0.7266666666666667
219,-0.39702080305592,-0.257615519431561,0.881861258463513,-1.23685478955442,-1.83060824975404,-0.997776542046396,0.73
220,-0.401293298700432,-0.255697849661025,0.881164343777278,-1.06968488701675,-1.89915864805205,-1.22665074884366,0.7333333333333333
221,-0.401116458805906,-0.253912582380327,0.88396415667433,-0.99888755031781,-1.99048358606993,-1.43297465201274,0.7366666666666667
222,-0.398598395008024,-0.253085522111579,0.883858127180654,-0.864723693115574,-2.149905364109,-1.46574883211629,0.74
223,-0.399214892272101,-0.254124820337951,0.880542375870836,-0.656582505183035,-2.2357535292779,-1.20839907665847,0.7433333333333333
224,-0.399099403534216,-0.253718889569084,0.88072990384455,-0.595549383370428,-2.14488723563034,-1.02962580426905,0.7466666666666667
225,-0.399214075024864,-0.252058310426996,0.881766688780778,-0.527001528119157,-1.96247431091997,-1.26326898159522,0.75
226,-0.400560957142834,-0.250644816174365,0.87968230513987,-0.495795474829321,-1.74862855378133,-1.65292971013688,0.7533333333333333
227,-0.405323854209145,-0.252997155041636,0.880048857597101,-0.511053755282471,-1.5953532052102,-1.74089009286034,0.7566666666666667
228,-0.403273223813285,-0.254603909867572,0.880233136015044,-0.496259205293131,-1.69891505513559,-1.42255299043131,0.76
229,-0.396317883693551,-0.253782343017473,0.883597842879484,-0.510585955943876,-1.77893257661097,-0.927241081830364,0.7633333333333333
230,-0.394474768228711,-0.251554278782297,0.883733245477409,-0.54931640625,-1.7763596802487,-0.430762217929676,0.7666666666666667
231,-0.394079840598194,-0.249598466067819,0.88431537664711,-0.699550041901572,-1.91415403810305,-0.123247439986714,0.77
232,-0.39579388010897,-0.247863774841725,0.889925835156407,-0.786891628940923,-2.10358490618065,0.322271118300809,0.7733333333333333
233,-0.391839112375256,-0.249668835112467,0.888367620997909,-0.919951029162299,-2.34819129608184,0.686882967747237,0.7766666666666666
234,-0.387091389932638,-0.25228452340007,0.891840992647087,-1.20425195017033,-2.47168535097157,0.588775003250142,0.78
235,-0.391233130332834,-0.253635494095506,0.891678427305917,-1.1841128657626,-2.37453790700974,0.158096261184025,0.7833333333333333
236,-0.401883814371615,-0.250891564555254,0.881845578764423,-1.19601110447505,-2.29584647492918,-0.438656697359265,0.7866666666666666
237,-0.40694897558849,-0.249565376751849,0.871691222825708,-1.39485079076635,-2.40968102782737,-0.896887151354123,0.79
238,-0.401560159048654,-0.253395904710633,0.867140141254003,-1.344956351754,-2.35954455139614,-1.56437889259082,0.7933333333333333
239,-0.402293006492727,-0.254397550292247,0.87443383930865,-1.0402768519661,-2.25030604184837,-2.01440371949692,0.7966666666666666
240,-0.404344486843545,-0.251476889723482,0.883525757815725,-0.742130203488968,-2.28106667461094,-1.54096800498247,0.8
241,-0.399782288307779,-0.248477283757035,0.890852369151873,-0.730457093525524,-2.50650963435876,-0.505120557692858,0.8033333333333333
242,-0.400905200728804,-0.250880614093791,0.896154030875014,-1.02713219033419,-2.68628671970902,0.323994818944164,0.8066666666666666
243,-0.400288920629074,-0.255074264443313,0.895699868288687,-1.16041086511511,-2.74484860639808,0.459744728848623,0.81
244,-0.394708183053899,-0.26249486416254,0.890801760589586,-1.08387132211831,-2.8684036944096,-0.309742648675099,0.8133333333333334
245,-0.39515283924723,-0.263659300680505,0.879100952153533,-1.0378473228091,-2.7788472752887,-1.53940459387749,0.8166666666666667
246,-0.397022779304378,-0.256605427048277,0.87132285414822,-0.894769972267516,-2.73782455971867,-2.18100410082632,0.82
247,-0.399325163687123,-0.250620220379951,0.868463396472601,-0.830471349422037,-2.65004276280691,-2.2430419921875,0.8233333333333334
248,-0.40133298150326,-0.246378173177584,0.869177836452262,-0.795226058756325,-2.29960673159612,-1.8228720084628,0.8266666666666667
249,-0.401806851332852,-0.248790022023744,0.87513830613012,-0.544097498340716,-1.97066740796752,-1.03593104441519,0.83
250,-0.397361516572754,-0.252138900251443,0.873843664595489,-0.381724479215087,-1.66601028699095,-0.386310026961649,0.8333333333333334
251,-0.395738338891015,-0.253253145046707,0.875827108157355,-0.298697351139521,-1.495361328125,0.0209699095591316,0.8366666666666667
252,-0.395630586236394,-0.256531404644793,0.881063180743727,-0.213879833964978,-1.56287033700135,-0.252722949723069,0.84
253,-0.394295393301223,-0.259415691953956,0.883767251754882,-0.265868689204718,-1.50518205927998,-0.821138761979588,0.8433333333333334
254,-0.395726772514541,-0.253496630223384,0.886869327078192,-0.395693229515506,-1.20829137273861,-0.984321305294937,0.8466666666666667
255,-0.397369202283228,-0.250760317075917,0.885339695484141,-0.42776577124213,-1.18008768425613,-0.984061975158217,0.85
256,-0.401220756865512,-0.250993150082879,0.883552189673066,-0.486716114211411,-1.29751878224203,-0.9918212890625,0.8533333333333334
257,-0.398096774993572,-0.249068976176236,0.884420685340571,-0.512347862919322,-1.29647332394558,-1.05930741051818,0.8566666666666667
258,-0.399653976206298,-0.248630810734765,0.884773138629226,-0.397517186831475,-1.60493877365382,-0.956697556031069,0.86
259,-0.401296212247224,-0.247723217966733,0.883587363533302,-0.298470063391746,-2.03454121744562,-0.725716157141746,0.8633333333333333
260,-0.395601420679079,-0.25319141795803,0.886909686872979,-0.131686643327887,-2.32444854605551,-0.491460348074619,0.8666666666666667
261,-0.396143982551394,-0.254674283366641,0.889250245596836,-0.0302516360667487,-2.68182368618448,-0.275190087241503,0.87
262,-0.400197890448684,-0.254316328754355,0.884421711615126,-0.120735516115265,-2.83920260273279,-0.401554837748307,0.8733333333333333
263,-0.404482485795772,-0.256830816723741,0.878792000529667,-0.213355070379355,-2.82956745335899,-0.677006289563915,0.8766666666666667
264,-0.40613801370302,-0.254519757183066,0.878536660850224,-0.176417552218948,-2.83894174676803,-1.00331416612421,0.88
265,-0.395847978857912,-0.249505935855043,0.883375339189573,-0.144553479694193,-2.70242572966073,-1.25817507032365,0.8833333333333333
266,-0.394537988763034,-0.250596769104977,0.882559733281577,-0.0254629510352586,-2.53431412513369,-1.31947871167864,0.8866666666666667
267,-0.402556734767221,-0.25171258417178,0.879567885291085,0.271937749420666,-2.55407887306093,-1.29031983457777,0.89
268,-0.40131217165344,-0.249410287861789,0.878059595090627,0.307360281963033,-2.53514348508803,-1.16103328169565,0.8933333333333333
269,-0.398513447222359,-0.252105332172739,0.881287107767909,0.228059596514026,-2.29850335246494,-1.24071347061159,0.8966666666666666
270,-0.39275806401039,-0.255898440411218,0.884439515280423,0.28964189516098,-2.11458022177559,-1.48621889994789,0.9
271,-0.39288005631702,-0.252969707963148,0.881166447044057,0.30517578125,-2.05966040919228,-1.42182852526466,0.9033333333333333
272,-0.400374317394129,-0.243847237539196,0.877336422498656,0.185322520461294,-2.06021365490141,-1.32640612258185,0.9066666666666666
273,-0.399667627937811,-0.246004580069767,0.880546871529081,0.10597707738966,-1.84992940943647,-1.11889827784954,0.91
274,-0.393107838686687,-0.251293191971366,0.881807206330437,0.137608267463811,-1.69288808823357,-0.629518674180857,0.9133333333333333
275,-0.396787206792109,-0.252834636112542,0.875305334455007,-0.0277157469249315,-1.80690567986622,-0.449433819543733,0.9166666666666666
276,-0.40279180252082,-0.254497601597079,0.87557013034909,-0.0782623476834176,-2.01911814756358,-0.443348483828608,0.92
277,-0.401602634848569,-0.252661677042059,0.881503464359042,-0.209107565956629,-2.08437690359694,-0.344310515357144,0.9233333333333333
278,-0.398419660826723,-0.25673037996304,0.88426384280034,-0.337959237583783,-1.9839258129011,-0.64933029506115,0.9266666666666666
279,-0.397995965470425,-0.258008980891854,0.884277558433704,-0.251059389544261,-1.8111511498516,-0.872593496510456,0.93
280,-0.399252355014922,-0.251948918237998,0.887644971150987,-0.44713895060207,-1.52816105995795,-0.73962336571101,0.9333333333333333
281,-0.402021533664528,-0.250308052713864,0.889472210829267,-0.5429753006636,-1.49364360953187,-0.650645683397667,0.9366666666666666
282,-0.405266119465817,-0.250682936634935,0.878544588039819,-0.600280086936231,-1.74411465932196,-0.301999593307462,0.94
283,-0.401655153746126,-0.253574252857204,0.872407138660268,-0.590202427167301,-2.14687612389915,-0.173313667696867,0.9433333333333334
284,-0.396319794144119,-0.257662395352562,0.873004357936142,-0.225447843686251,-2.5827480199903,-0.896179756643574,0.9466666666666667
285,-0.398677758745296,-0.256859618872046,0.879769203063301,0.0299368675110486,-2.88936286254143,-1.39864721932804,0.95
286,-0.404725038681908,-0.252924953286041,0.892183643553443,0.0984536975920716,-3.04339998665457,-0.869842953961541,0.9533333333333334
287,-0.405289876561972,-0.252366443817916,0.897219742837151,0.077463504289968,-3.16459058687473,-0.240750881762072,0.9566666666666667
288,-0.402572748899028,-0.253025810545237,0.899484012195562,-0.134395031931873,-3.2501220703125,0.052085430384968,0.96
289,-0.402170843858049,-0.251786019357592,0.894166617834802,-0.147755525820473,-3.18278242834917,0.10710594761926,0.9633333333333334
290,-0.401225648183526,-0.255383566323917,0.884316205660686,-0.0299266953240757,-3.08286627342592,-0.132897480555568,0.9666666666666667
291,-0.395133554963884,-0.258549460211222,0.878338986387694,0.0062953307450399,-2.9993896559483,-0.50087191149008,0.97
292,-0.394229426108603,-0.255857885880501,0.874908311081168,0.0688132887001767,-2.88510103616391,-1.07474722413975,0.9733333333333334
293,-0.39895623770396,-0.252899470959727,0.873015145106535,0.180717524297607,-2.69571346051192,-1.44359727821727,0.9766666666666667
294,-0.399233116985011,-0.249359313924646,0.872673120647671,0.320135060037255,-2.30168918372303,-1.24583763565809,0.98
295,-0.399089774477877,-0.249509219484008,0.872285542435224,0.447880321139166,-1.91723198354833,-0.942172121018056,0.9833333333333333
296,-0.39899479632482,-0.250217054438865,0.874722396108749,0.370131018764348,-1.54626395542742,-0.523321998814633,0.9866666666666667
297,-0.394400927501134,-0.250143833287979,0.874339302453135,0.11549988472844,-1.37895375760254,-0.2525264243596,0.99
298,-0.387017733361809,-0.250224481173774,0.876654525913673,0.0236471314688389,-1.36793846471902,-0.265966281568626,0.9933333333333333
299,-0.391946436427648,-0.248461995612222,0.880233867872971,-0.0601213671438063,-1.32599166659384,-0.410159726475113,0.9966666666666667
300,-0.402045093856964,-0.253773871935198,0.877894045723709,-0.241390102713121,-1.50100423433795,-0.481110275849896,1.0
301,-0.401631463287609,-0.254708976659911,0.878606433379387,-0.456230517844387,-1.55731637679337,-0.74933075787436,1.0033333333333334
302,-0.404692061628963,-0.250322231106625,0.876758812140915,-0.563959899262855,-1.59285139289473,-1.07528315686902,1.0066666666666666
303,-0.409600360489278,-0.250209337291256,0.875906364365708,-0.699743640170374,-1.61119123968958,-0.979031821948144,1.01
304,-0.407654452056788,-0.247307079625879,0.882627609213876,-0.8087158203125,-1.60093412171365,-0.645204695095991,1.0133333333333334
305,-0.40385141609607,-0.248397228763795,0.890243034812043,-0.8087158203125,-1.73047441002965,-0.225446887098552,1.0166666666666666
306,-0.400623783478471,-0.253849368589166,0.893862335918803,-0.584509737869135,-1.92758722275957,0.0221088913447275,1.02
307,-0.403704157437475,-0.254626346807521,0.895046331436274,-0.403263340742169,-2.27665432012827,0.06103515625,1.0233333333333334
308,-0.405192490651656,-0.256035778221935,0.892914632677822,-0.495126266188749,-2.64441926464225,-0.110832777593246,1.0266666666666666
309,-0.401341578859308,-0.258170340620775,0.885543846533511,-0.4443934941467,-2.8222464394511,-0.581325392070099,1.03
310,-0.399619159671629,-0.25455702492405,0.8806946700796,-0.313594640217239,-2.92063706948397,-1.08674031001441,1.0333333333333334
311,-0.398629191218939,-0.253448738988343,0.87862052804321,-0.282129196159704,-2.96830967714589,-1.36423600762484,1.0366666666666666
312,-0.3950106392197,-0.252473997564854,0.874601713555987,-0.260035054486082,-2.87771192923431,-1.37456229647216,1.04
313,-0.394023354020408,-0.24943170452769,0.872435088817169,-0.221411860121492,-2.77026730841996,-1.08068660907876,1.0433333333333332
314,-0.397494539942918,-0.246211058327129,0.87594294887105,-0.198684112461687,-2.62675070129431,-0.704782988717679,1.0466666666666666
315,-0.400167479482911,-0.246275341108684,0.877965226656001,-0.235388178931162,-2.30856935458785,-0.594451029701736,1.05
316,-0.396745947056476,-0.25402733361683,0.877904544214195,-0.192827142344006,-1.89627440187551,-0.83472695122541,1.0533333333333332
317,-0.394949973627966,-0.254651310268554,0.879495704230294,-0.143828324025278,-1.78334088248083,-1.12753585909861,1.0566666666666666
318,-0.393073076536811,-0.253808763989208,0.882186662906472,-0.138624795658377,-1.77975442868705,-1.27265123086089,1.06
319,-0.391997055914469,-0.255957816545858,0.880021956256222,-0.218165504350895,-1.58886370695601,-1.06649724358312,1.0633333333333332
320,-0.39608268977852,-0.253802564305571,0.876762525452286,-0.328878859747161,-1.56255906808011,-0.703534086681823,1.0666666666666667
321,-0.396054551619329,-0.251440590527849,0.879257358949084,-0.177928388069217,-1.53563363945165,-0.498689933561779,1.07
322,-0.399122469664164,-0.251920012440019,0.878985830199726,-0.06103515625,-1.49404935852996,-0.41100332749122,1.0733333333333333
323,-0.401258429077587,-0.252196735646153,0.880009675877347,-0.0685000459725222,-1.50414225631734,-0.450298782152478,1.0766666666666667
324,-0.399578813602617,-0.253136415759539,0.876881856400585,-0.158402137557396,-1.50930000984288,-0.4425048828125,1.08
325,-0.399614817466601,-0.254640320266331,0.875403760757271,-0.154574154954082,-1.51194429340689,-0.539535225362245,1.0833333333333333
326,-0.399811371411886,-0.25090776736266,0.883411522091649,-0.158058886878197,-1.37495132199273,-0.57369886557471,1.0866666666666667
327,-0.398396216647847,-0.250733748341388,0.884118963355722,-0.251936558777371,-1.30445992559763,-0.555780026058402,1.09
328,-0.400091385540257,-0.253058203832397,0.880145098172196,-0.363538171812496,-1.25255708596875,-0.580502175796876,1.0933333333333333
329,-0.402784160757316,-0.254547233677366,0.877424857737374,-0.413662869335699,-1.35434598433646,-0.758247872110044,1.0966666666666667
330,-0.401765845541771,-0.256008742919728,0.875805019671073,-0.119314805119584,-1.71987347213417,-1.52870087982416,1.1
331,-0.401051500617084,-0.253524259609972,0.880596316616728,0.196341373610301,-2.01959809289553,-1.94157483197486,1.1033333333333333
332,-0.401854903852356,-0.253133686231901,0.888750617585048,0.35705980233297,-2.31493979788553,-1.5089086029065,1.1066666666666667
333,-0.405639352081,-0.25266036760975,0.892948439993036,0.263130413911169,-2.65943646426422,-0.780913892691196,1.11
334,-0.407668429274047,-0.251904918175701,0.896366285081954,0.13630850449314,-2.97172167793318,-0.111234110738062,1.1133333333333333
335,-0.400308921417108,-0.255266450407591,0.895010415582788,0.235316973622395,-3.03142875071987,-0.162046003576632,1.1166666666666667
336,-0.396521980412069,-0.256861020230034,0.889441657842102,0.252625603182539,-2.96663665554445,-0.568953371968853,1.12
337,-0.401109450662401,-0.252572728476877,0.882520980760375,0.131587585766922,-2.82733823539227,-0.829029623812151,1.1233333333333333
338,-0.40287324380588,-0.250791458363556,0.876187401316774,-0.133197886787569,-2.60959719758541,-0.931130400710411,1.1266666666666667
339,-0.396027581916155,-0.249379405500036,0.875416240863212,-0.3204345703125,-2.43740234919312,-0.87078683191232,1.13
340,-0.391153350661012,-0.24796294336002,0.877957937328754,-0.245872136676511,-2.10952221631332,-0.771780905829808,1.1333333333333333
341,-0.394007117851779,-0.249917604132439,0.875770373792055,-0.175302414441749,-1.90058753716625,-0.49349104331003,1.1366666666666667
342,-0.396449827251185,-0.247571295349884,0.875565917032766,-0.20547114718471,-1.72737819501674,-0.0804739865848228,1.14
343,-0.397353513233937,-0.249203353196864,0.87876843488151,-0.20651768333084,-1.51982160468002,-0.101920567557994,1.1433333333333333
344,-0.401419114647988,-0.250178610082518,0.879791714980233,-0.280010184790672,-1.47194758771612,-0.596240300582104,1.1466666666666667
345,-0.400664552064284,-0.245636908408379,0.883388621059862,-0.40383082751307,-1.37610212305529,-1.04899117259585,1.15
346,-0.401382174142049,-0.249136486827083,0.879842562427952,-0.598669503022633,-1.16178240263493,-1.04182652401986,1.1533333333333333
347,-0.403232618205269,-0.249647508150282,0.876510970019524,-0.99432605203414,-1.11283133296396,-0.69053315934048,1.1566666666666667
348,-0.403990747235196,-0.248438221402134,0.874911993375957,-1.30267704437691,-1.15221579426119,-0.623129270968342,1.16
349,-0.404716462823811,-0.253919256881979,0.872236705508445,-1.28422648237503,-1.27108749963836,-0.777131870276774,1.1633333333333333
350,-0.403415384130733,-0.257095221917889,0.877664322286087,-1.20473138689296,-1.4559666946408,-0.794169980294542,1.1666666666666667
351,-0.404652793715196,-0.258378934720646,0.881002437798737,-1.2583138600448,-1.6894356850459,-0.859797885714966,1.17
352,-0.404549218908563,-0.257516427240231,0.883445506575995,-1.31898898150709,-1.98858315545878,-0.827201190011962,1.1733333333333333
353,-0.402359710488277,-0.254607917141898,0.888187206901926,-1.3580322265625,-2.13551141639327,-0.627048456275957,1.1766666666666667
354,-0.40226726120079,-0.255332267642114,0.886625986466671,-1.15690591007903,-2.19654453820588,-0.676312037803317,1.18
355,-0.400901344293961,-0.255110670571508,0.884350576465817,-1.00563383566197,-2.2799235026886,-0.644484746782575,1.1833333333333333
356,-0.394032032445383,-0.254235940577762,0.883504912462017,-1.07556333998902,-2.34949093779055,-0.458488827543906,1.1866666666666668
357,-0.394819412098147,-0.256751112194083,0.879398627624364,-0.971660068367366,-2.45448346874361,-0.658121600894943,1.19
358,-0.397084450086163,-0.259400993395025,0.875163501398259,-0.847045099104674,-2.42906435911229,-1.04921032259401,1.1933333333333334
359,-0.397200090957999,-0.258195296657921,0.876925620270747,-0.705194962289862,-2.24450451014966,-1.33948277208514,1.1966666666666668
360,-0.403808739350117,-0.253703056977268,0.877282783347027,-0.54968305295924,-2.01819327005164,-1.59923967788858,1.2
361,-0.406028222119732,-0.251977027667502,0.876085895903288,-0.601067680293031,-1.74207560062056,-1.63489641325513,1.2033333333333334
362,-0.404626100728017,-0.252665449923371,0.877224137692027,-0.656496610834135,-1.60291021385577,-1.42201683198558,1.2066666666666668
363,-0.401292854375186,-0.253569118947714,0.875912738029339,-0.581312777836324,-1.65354527227193,-1.13321707264364,1.21
364,-0.395839973823882,-0.259076405953073,0.875029900788842,-0.295477725947899,-1.81394232051737,-0.797534902674293,1.2133333333333334
365,-0.398761308800422,-0.25959870218941,0.875531480270198,-0.120583381289095,-1.75066280928215,-0.48418331709465,1.2166666666666666
366,-0.402106471080186,-0.256218324398917,0.876377611912109,-0.116118293065149,-1.7361472029322,-0.216605047046376,1.22
367,-0.399638883836224,-0.257280427501773,0.877377041038338,-0.120201476299412,-1.95125616379941,0.0424124620264408,1.2233333333333334
368,-0.401628167529767,-0.257951972353278,0.88170381162299,-0.22069026471803,-2.10383896833093,0.27240949637212,1.2266666666666666
369,-0.400580752851442,-0.257070686684575,0.888621384024523,-0.214374650230022,-2.18944832962999,0.180173595187637,1.23
370,-0.400969901193722,-0.259468961892466,0.887680552744703,-0.153341528417426,-2.25679350566515,-0.223606371390521,1.2333333333333334
371,-0.405647737793007,-0.255516338898957,0.882460267278995,-0.0551060242358198,-2.28957403160481,-0.606195365236051,1.2366666666666666
372,-0.402634329540443,-0.250154735745859,0.885031081776267,0.007818821198052,-2.22110094192776,-0.852597920831979,1.24
373,-0.398665564046502,-0.251905621719671,0.886910341272176,0.0148789185102002,-2.0629754878559,-0.744799651434997,1.2433333333333334
374,-0.401360031392169,-0.25083949455516,0.879365196312759,0.0230786274792477,-2.14615682901856,-0.534438504958495,1.2466666666666666
375,-0.403838995312891,-0.25256897240812,0.871433114413717,0.0747663253537192,-2.61058089188878,-0.682444552925853,1.25
376,-0.402191096562351,-0.254643234920122,0.869138147031664,0.412532638363594,-2.85377647689589,-1.09994399059287,1.2533333333333334
377,-0.406982731570805,-0.253619323608827,0.87357574280929,0.679592022421883,-3.02407038606764,-1.14978433166674,1.2566666666666666
378,-0.410572064408084,-0.253029083857767,0.884433671698484,0.633817181062429,-3.29397365427107,-0.618435652061511,1.26
379,-0.407384233384917,-0.251544976547245,0.891230745098251,0.461623410519819,-3.3721923828125,0.0001029041738526,1.2633333333333334
380,-0.403812118119148,-0.254504249947782,0.892649055881972,0.320047579229322,-3.41680777675047,0.349791175187967,1.2666666666666666
381,-0.395577807565428,-0.259838248474959,0.891643716192037,0.246468674811239,-3.32990809034186,0.389293125244687,1.27
382,-0.393805078740633,-0.260998610461429,0.885403785674799,0.130283245312109,-3.13704274166576,0.0171605197852878,1.2733333333333334
383,-0.396107943647994,-0.260018232570901,0.881279418949245,0.314973971962796,-2.9558910468775,-0.671020237126326,1.2766666666666666
384,-0.398588635964489,-0.254368368525088,0.876473743236496,0.586094669053375,-2.74853733103982,-1.18510176742146,1.28
385,-0.405354052196856,-0.245599623605217,0.873382449958787,0.6037023609104,-2.58108781462246,-1.50748349977422,1.2833333333333334
386,-0.405163564118747,-0.2463831832665,0.872510694918551,0.676067905316068,-2.37568990718393,-1.43200355168108,1.2866666666666666
387,-0.400443127499494,-0.248888984659893,0.872993735293883,0.78602469252578,-2.31775949104376,-0.774762801546783,1.29
388,-0.397981925362838,-0.248543889709604,0.876991243984863,0.830221052991621,-2.16484802041864,-0.186266499412008,1.2933333333333332
389,-0.400089596826815,-0.252591095078515,0.877520776143067,0.847853158097377,-2.00474810448722,-0.0461725132389507,1.2966666666666666
390,-0.39869343755567,-0.257135555879761,0.877984171849316,0.689822813973671,-2.23124238331971,-0.312888468179718,1.3
391,-0.397740737515666,-0.25713778965719,0.880782319871174,0.542284282452013,-2.32132683994421,-0.647503083934145,1.3033333333333332
392,-0.402236043836029,-0.255451697952412,0.878724334212402,0.414781688640293,-2.27276117489742,-0.835241421362082,1.3066666666666666
393,-0.405512681718931,-0.253102350633625,0.873954161348178,0.11201431747856,-2.24464285189244,-0.880381983040515,1.31
394,-0.403121099240095,-0.24898049123715,0.875845918542039,-0.0692663989986558,-2.15972050056116,-0.629221440866935,1.3133333333333332
395,-0.401317805119194,-0.245831618906387,0.880165328790563,-0.0680611767358007,-2.08423257980396,-0.131724297227189,1.3166666666666667
396,-0.406143727232463,-0.24426719274735,0.885171106073887,-0.0989804956150857,-2.08884103523319,0.377840327321543,1.32
397,-0.408882130508954,-0.244202637849853,0.890016850125414,0.0640152870694718,-2.31488881568873,0.474235312340573,1.3233333333333333
398,-0.403541273795353,-0.246062357693526,0.894663308794993,0.296127833149731,-2.62829075359391,0.39011237364305,1.3266666666666667
399,-0.402384966530249,-0.24933773676196,0.894235764180787,0.3509521484375,-2.96275549467601,0.232132381844857,1.33
400,-0.402655928043176,-0.251736855443836,0.886983712500432,0.187586158778223,-3.35906395961025,-0.182791821867582,1.3333333333333333
401,-0.399282649442627,-0.256047956577942,0.881770985753547,0.0746605346092564,-3.59283229520503,-0.725888232187025,1.3366666666666667
402,-0.39900769640778,-0.25926086704947,0.87773260987978,0.18930206865047,-3.60148358864451,-1.11020727251192,1.34
403,-0.401057916120643,-0.258009870375577,0.874366356398016,0.251564825974647,-3.54127022383962,-1.30319010994753,1.3433333333333333
404,-0.401988492752471,-0.254164663667669,0.871093487477064,0.251975721697203,-3.34578884800656,-1.32833745710131,1.3466666666666667
405,-0.40278042668007,-0.252544840492841,0.873953019558196,0.251563808755951,-3.04062323894348,-1.2673043352887,1.35
406,-0.404904532056464,-0.249535024702671,0.877238040740844,0.222286038329493,-2.68349890385426,-1.01328165966446,1.3533333333333333
407,-0.399063488183681,-0.246636750378981,0.879488786056538,0.220216301436267,-2.32348049737993,-0.689132243740458,1.3566666666666667
408,-0.395126156460812,-0.247106019087337,0.880824181372463,0.192604492711349,-2.14448307309128,-0.468924588663104,1.36
409,-0.396344505091189,-0.249048963235885,0.877497858450721,0.270493298871137,-2.21002547151018,-0.35795680733067,1.3633333333333333
410,-0.399840646716018,-0.25115334708056,0.877885217536868,0.375301608785544,-2.34118035198354,-0.277580756633589,1.3666666666666667
411,-0.407538846461451,-0.252627210612271,0.878466926188537,0.313014438212642,-2.44715228264872,-0.1678466796875,1.37
412,-0.404803724963173,-0.255299867760478,0.877688063464161,0.20872067587334,-2.56221793625557,-0.123328938744426,1.3733333333333333
413,-0.407031202497514,-0.254816104256838,0.878448903205084,0.0622968341505254,-2.65376761897447,0.0127354332614492,1.3766666666666667
414,-0.410457336952592,-0.253003808084191,0.884456893995793,0.0449332141497584,-2.64145681388798,0.0622998858066124,1.38
415,-0.403862338451471,-0.252814202982468,0.887401651213344,-0.049813714949435,-2.69742491416197,0.111694058674568,1.3833333333333333
416,-0.400539287012213,-0.250242750116235,0.885810489453502,-0.0644240439001296,-2.88221668898744,0.139447156343831,1.3866666666666667
417,-0.396505534583473,-0.249322939843338,0.887064516600278,0.0387839149186867,-2.81885592151839,0.12778888024394,1.39
418,-0.398041206345115,-0.24828215385307,0.886000435831598,-0.0737400729505549,-2.73004630600653,0.302196263494397,1.3933333333333333
419,-0.40484526525905,-0.246036404273095,0.876724739634903,-0.271671564838514,-3.08857426482804,0.500980063388369,1.3966666666666667
420,-0.403197937042015,-0.248755981629828,0.867323276670586,-0.344391953483882,-3.55144873308302,0.127912832646917,1.4
421,-0.395781030999691,-0.251807108830453,0.867595599817675,-0.0234040330078003,-3.71487209114412,-0.6479826857422,1.4033333333333333
422,-0.400630663392178,-0.251666700275077,0.877018785680786,0.237585516139861,-3.66425794634222,-0.871899547904721,1.4066666666666667
423,-0.409449463439807,-0.251920720747737,0.886762428628148,0.176122171449466,-3.62288557362589,-0.452411707016811,1.41
424,-0.406016582115611,-0.25204153678615,0.892145173105535,0.0487986081283775,-3.69917697589165,0.0789582297265942,1.4133333333333333
425,-0.409010434264155,-0.252406543171169,0.895424171877558,-0.164817318215739,-3.75322934345046,0.326116518183332,1.4166666666666667
426,-0.408116006629362,-0.256718866499769,0.89209472568909,-0.30430821496353,-3.76150839547787,0.36707850378647,1.42
427,-0.396877538809463,-0.258749455200491,0.884841241533623,-0.254161421521869,-3.61283421671959,-0.0497303468398019,1.4233333333333333
428,-0.395075486905135,-0.255513968386389,0.882747204537371,-0.15302370820563,-3.59715186052433,-0.420706243170326,1.4266666666666667
429,-0.398214627945197,-0.250331968209592,0.876730105832316,-0.248493758536335,-3.63464964047025,-0.485223406404746,1.43
430,-0.401227855417244,-0.245662217878536,0.869863333600548,-0.432905154200152,-3.42844418264839,-0.528398556737348,1.4333333333333333
431,-0.398980935800463,-0.250548530389819,0.869539143662557,-0.459080279585152,-3.09670725832537,-0.368844152920304,1.4366666666666668
432,-0.397033269679173,-0.253709037268574,0.872947843309943,-0.486081817722935,-2.84598410338396,-0.237610946607283,1.44
433,-0.398279532154609,-0.252628683683171,0.8746339855799,-0.520121539147338,-2.73440956790629,-0.339134169002178,1.4433333333333334
434,-0.39890116212346,-0.251628084203371,0.876873756296673,-0.391529686004174,-2.51338520747728,-0.643858365781804,1.4466666666666668
435,-0.398439681932466,-0.248749184239215,0.882656553738874,-0.238504451970527,-2.388221957337,-1.11984869028337,1.45
436,-0.400545605891171,-0.24657357052255,0.886164086983097,-0.0863650941598713,-2.16555600463171,-1.39773304287446,1.4533333333333334
437,-0.407399032571524,-0.245638333203451,0.882621168194635,-0.0740690825680024,-2.0563767430463,-1.00205565768719,1.4566666666666668
438,-0.404292497785376,-0.245691194926225,0.877368802587174,-0.159994290272452,-2.10794283946298,-0.359425954021809,1.46
439,-0.401358756531897,-0.245404050384225,0.878279197925405,-0.293746827335278,-1.93314236181714,-0.0017880279451634,1.4633333333333334
440,-0.400921934398057,-0.248540137032958,0.877785939556959,-0.382813799177472,-1.97175695364634,0.0240082441062265,1.4666666666666666
441,-0.400235933525739,-0.249286399868732,0.879423991192292,-0.306073864097364,-2.21723503933982,-0.133736770173043,1.47
442,-0.402208208886712,-0.24928878015501,0.886472154158033,-0.252445107494826,-2.57108435464197,-0.229781953222268,1.4733333333333334
443,-0.399263081406407,-0.249770610342221,0.8910468668024,-0.169650983131827,-2.85294247882642,-0.302018250222429,1.4766666666666666
444,-0.402402221305411,-0.251935962587168,0.891518610498911,-0.21786174330792,-2.89826573571545,-0.611877700454256,1.48
445,-0.399215100822025,-0.25444131906627,0.888685404599662,-0.446735950105172,-3.01852157258414,-0.809168930610977,1.4833333333333334
446,-0.398013377848507,-0.253975595440914,0.889300493484867,-0.401723918313855,-3.25343725343065,-0.652812746569352,1.4866666666666666
447,-0.402006238513739,-0.253572475286425,0.88415541617789,-0.221480013774184,-3.41751360526413,-0.73299652612529,1.49
448,-0.396440505092787,-0.252150309202533,0.876433131638614,-0.258030928198808,-3.38881965773869,-0.969161186446032,1.4933333333333334
449,-0.395470177373047,-0.250869946200755,0.874888610978439,-0.134957267523736,-3.1936587057951,-1.13892302960838,1.4966666666666666
450,-0.398188793262009,-0.246826851877237,0.874558050355146,0.0087748855111485,-2.74788746636196,-1.41631820446074,1.5
451,-0.399682889602677,-0.246219404693651,0.877865621751286,-0.104515455384245,-2.31560985865928,-1.30342606086161,1.5033333333333334
452,-0.398533024680102,-0.246803316151719,0.878830930710517,-0.197904026983147,-2.00442413713973,-0.846597091707143,1.5066666666666666
453,-0.396034629779558,-0.244586042343704,0.881512798903646,-0.420788621077293,-1.57163647169908,-0.225154248076262,1.51
454,-0.399704416362347,-0.246908689390961,0.886155677707092,-0.603877831135615,-1.29745933557925,-0.0245081296573001,1.5133333333333334
455,-0.398636847061449,-0.251524656795118,0.885591147984479,-0.549779688735442,-1.22255625494177,-0.399030161573669,1.5166666666666666
456,-0.39617145829791,-0.252426091293904,0.883491319528665,-0.59323557462095,-1.13747623471246,-0.631614697129269,1.52
457,-0.397429088003209,-0.24872156776409,0.879521079705011,-0.641334457547837,-1.16566875405132,-0.501727106066715,1.5233333333333334
458,-0.397092213643124,-0.245528996632251,0.878027758117537,-0.655195261404442,-1.23549557992097,-0.112873867277374,1.5266666666666666
459,-0.401819501002075,-0.249490176177911,0.876591148360788,-0.753206977472713,-1.15507635806025,0.313424299909043,1.53
460,-0.405611293390487,-0.252566489874304,0.87470826546922,-0.920112342518216,-0.949323501927498,0.394016991172497,1.5333333333333334
461,-0.402629270108968,-0.252288959560083,0.877548270423544,-1.0223388671875,-0.698734067421177,0.177118924510434,1.5366666666666666
462,-0.404471017426685,-0.25230957086664,0.881301309219816,-1.04452144625676,-0.615864143457794,0.0481283822691182,1.54
463,-0.403814690009893,-0.250973818744561,0.884792463526291,-1.06072154996126,-0.679251823398758,-0.030517578125,1.5433333333333332
464,-0.405239506310284,-0.25186152969972,0.880893790267083,-1.08242914853007,-0.804463883229065,-0.0896629845601401,1.5466666666666666
465,-0.407006570759116,-0.254004782280211,0.881062745225095,-1.03257226241701,-0.909081585899777,-0.0343052155042851,1.55
466,-0.409013445183827,-0.250319286954249,0.881502766184926,-1.06431945924615,-0.810613707876925,-0.0341139615818464,1.5533333333333332
467,-0.417269359329979,-0.250074639961243,0.874276672534808,-1.15322729699325,-0.991605113282018,-0.160455029711151,1.5566666666666666
468,-0.412379365561381,-0.258297973708751,0.871183590176242,-1.0473713292595,-1.56164864053901,-0.692141210416015,1.56
469,-0.402667615751957,-0.259759716187562,0.873027335432293,-0.725280986239924,-1.89948047650765,-1.57688606800877,1.5633333333333332
470,-0.399885501187193,-0.254571612456503,0.884184349912167,-0.391252554540269,-2.15861285385482,-1.74476590154982,1.5666666666666667
471,-0.40322104443666,-0.253013838340977,0.897324404516066,-0.253928030461917,-2.44831630755436,-1.20956411202877,1.57
472,-0.40808003361968,-0.249363252315174,0.90286435565543,-0.175716361820394,-2.70837524987239,-0.535799439120374,1.5733333333333333
473,-0.409118653671856,-0.248370996622882,0.896598214041107,-0.123515089765952,-2.89370769324268,-0.0663326728918249,1.5766666666666667
474,-0.404335412150757,-0.255744410993588,0.887222999731874,-0.275772367507019,-2.95586159135885,0.0181544469066029,1.58
475,-0.40404709795712,-0.26145148420869,0.878403107148438,-0.310979303562529,-3.17140999070311,-0.393959932679636,1.5833333333333333
476,-0.403382388550181,-0.261218420541811,0.870943148328375,0.0330582098364184,-3.1762513453904,-1.07961428213389,1.5866666666666667
477,-0.399103414237754,-0.25654807551732,0.871869453921784,0.220523949461088,-3.1566266907504,-1.71550126072055,1.59
478,-0.40062677119542,-0.251879451909795,0.871126544934887,0.428792006837868,-3.12358577363181,-1.90288264863181,1.5933333333333333
479,-0.404436065951568,-0.248995690072822,0.869444015235988,0.662538084883324,-2.85137266109921,-1.53465742946506,1.5966666666666667
480,-0.404806630898576,-0.250510639313292,0.87245715546139,0.605898802162352,-2.58166762927967,-0.719497963178027,1.6
481,-0.405391801569901,-0.251832142416899,0.877127984399163,0.562616274626254,-2.47979808774203,-0.0713580667248387,1.6033333333333333
482,-0.40438016029198,-0.251417912792162,0.881306583287513,0.581306226545772,-2.51622795314173,-0.043813377626471,1.6066666666666667
483,-0.395424837567271,-0.256560501393257,0.885585331910384,0.585742202774915,-2.7037632948087,-0.409535524735215,1.61
484,-0.396312816191952,-0.2548481111189,0.88763885228939,0.729465184034109,-2.94937260171403,-0.983443997992474,1.6133333333333333
485,-0.405253290720912,-0.247153017617273,0.885368003021341,0.72800217427,-3.02961032747577,-1.23645571310885,1.6166666666666667
486,-0.408439165046318,-0.249138130831261,0.879902209234908,0.367240827607091,-2.91739760852779,-1.10997332901911,1.62
487,-0.404145087757014,-0.25133678659073,0.878131693548843,0.091552734375,-2.76382415424746,-1.05087311137754,1.6233333333333333
488,-0.400909801519921,-0.245114319786494,0.878615881634674,0.0472669192948181,-2.65651984898232,-0.899843495341621,1.6266666666666667
489,-0.401559782070712,-0.243549426094509,0.878156767086412,0.0590436845654599,-2.63139431139955,-0.58282119190181,1.63
490,-0.401791548547716,-0.247888529673985,0.877643766262618,0.0187509850413149,-2.72144886452701,-0.429241634309323,1.6333333333333333
491,-0.404181624958191,-0.248338912661861,0.882987592473672,-0.0620349609670648,-2.88829116201329,-0.373590380851984,1.6366666666666667
492,-0.400170008027316,-0.249223062578876,0.889050404746124,0.0211349650734587,-3.17519602481592,-0.425743335018322,1.64
493,-0.395077399870134,-0.250048141698035,0.886654911040815,-0.0638961512199547,-3.35743553054593,-0.399238199604629,1.6433333333333333
494,-0.397708385136361,-0.252597351281241,0.882206837259926,-0.206245129351061,-3.35643063973538,-0.364702075456136,1.6466666666666667
495,-0.40058926869901,-0.252240209655163,0.877448175378381,-0.294270573702189,-3.23202161343526,-0.507893620577189,1.65
496,-0.401141608640484,-0.248656931640306,0.878737616022836,-0.470497518677436,-2.98637568665683,-0.617728462805244,1.6533333333333333
497,-0.398254923824529,-0.2476244311214,0.87937815369827,-0.482928880986938,-2.74375969059048,-0.640363134954292,1.6566666666666667
498,-0.396345295085647,-0.251453544235393,0.879162469787704,-0.448866720120229,-2.52023530975954,-0.641376163514408,1.66
499,-0.393959221423693,-0.255966160511322,0.879849499067077,-0.407152130750821,-2.38240325418242,-0.655111849471292,1.6633333333333333
500,-0.399036361025356,-0.252690585721529,0.875254751519157,-0.224561314030447,-2.2455872788215,-0.966890410790809,1.6666666666666667
501,-0.40199652290163,-0.250253654641762,0.873772627056746,-0.1220703125,-2.1593736896165,-1.36234613654802,1.67
502,-0.397886659338521,-0.25074099226487,0.876408653232913,-0.158939555745763,-2.09249846861928,-1.47221759864915,1.6733333333333333
503,-0.398605105368576,-0.250738649625043,0.878763844933209,-0.161497557613487,-1.91144550467566,-1.4727291990227,1.6766666666666667
504,-0.404589454925791,-0.249909665926653,0.881293905519108,-0.0114778410431469,-1.85163380318661,-1.22154031279492,1.68
505,-0.40315583986684,-0.247108646668193,0.880586861723359,0.077322232153072,-1.95946903598054,-0.651666152451006,1.6833333333333333
506,-0.400925415754227,-0.247119100771324,0.879594984801478,0.0162891103404633,-2.10210676615213,-0.202485542924353,1.6866666666666668
507,-0.399224048737214,-0.246995030549791,0.882082188488328,0.0215977389495518,-2.17566788605045,-0.142635695734193,1.69
508,-0.401645895667528,-0.248544370825719,0.884194323822484,-0.086380783611189,-2.20993843868059,-0.235735437854178,1.6933333333333334
509,-0.405599636113617,-0.250438924953684,0.883324327939264,-0.16306745277915,-2.41411326189813,-0.0751422044696587,1.6966666666666668
510,-0.402025887803953,-0.251525516333209,0.88190516895786,-0.105773064409955,-2.64402491050423,0.018893395658907,1.7
511,-0.402865717751347,-0.255975403086031,0.876817312153504,-0.0783749322423724,-2.68025859076486,-0.231568886510303,1.7033333333333334
512,-0.402565435992771,-0.255632538713068,0.875612483900792,-0.0815776520635131,-2.6092529296875,-0.514107452564526,1.7066666666666668
513,-0.403659273542851,-0.25094616845672,0.882440211164101,-0.115746620893399,-2.52820213627798,-0.619286659955899,1.71
514,-0.407403148864824,-0.246656574546001,0.886522304045271,-0.194177870704059,-2.40456752331514,-0.447214568309496,1.7133333333333334
515,-0.410072904974274,-0.24886138571011,0.876180525921775,-0.357270753950613,-2.62296559015429,-0.194667230335661,1.7166666666666666
516,-0.408424764905267,-0.25561310795547,0.870471361482316,-0.197826856431527,-3.10543830918675,-0.488830719936001,1.72
517,-0.401625373495751,-0.256306293838909,0.879965440390895,0.206780496294575,-3.34114845464285,-1.10757540102672,1.7233333333333334
518,-0.402743346368808,-0.256136573106449,0.88630339168766,0.456181570084962,-3.41585928094662,-1.26753422671419,1.7266666666666666
519,-0.409653109522096,-0.255099280133609,0.891063250542576,0.466714027611354,-3.69259477266665,-0.970814631614248,1.73
520,-0.409744560813562,-0.25760511725822,0.893971171438446,0.456704868473517,-3.84786185225371,-0.635092652046344,1.7333333333333334
521,-0.402045288924971,-0.258719110865604,0.895413280285695,0.525102175357668,-3.73209997307983,-0.690296760448004,1.7366666666666666
522,-0.399974253004994,-0.254715025216876,0.892081582068186,0.557211518850316,-3.61899018850316,-0.94862567309399,1.74
523,-0.400377957808932,-0.250971770512605,0.884159786956586,0.645037588336854,-3.2455123483866,-1.29743834452654,1.7433333333333334
524,-0.398466031759161,-0.250074659306618,0.878030159277761,0.718230027088556,-2.96650079621743,-1.28974033988292,1.7466666666666666
525,-0.396683784467507,-0.24771055378114,0.872110865464195,0.598299700202842,-2.83665198072732,-0.912975583263875,1.75
526,-0.397865363233528,-0.24432547582219,0.866101999128364,0.613964669434355,-2.46362660423045,-0.718769600976258,1.7533333333333334
527,-0.398543997293933,-0.247593208275115,0.864089223535129,0.754505275246321,-2.11843924635663,-0.774442586566167,1.7566666666666666
528,-0.39494608790888,-0.252986610549999,0.870836843912638,0.785558866993593,-1.92422004022594,-0.951255388879834,1.76
529,-0.395801059279286,-0.253304661114378,0.877274496528705,0.852337960823959,-1.83267035750703,-1.10330014535169,1.7633333333333334
530,-0.398709703255962,-0.251113579521491,0.881496498822782,0.790414014764251,-1.83679557342428,-0.939958888903503,1.7666666666666666
531,-0.40062380804168,-0.252442457195168,0.887318731345495,0.670846127643598,-1.87001254681585,-0.803850500354885,1.77
532,-0.399934123493285,-0.253357774134889,0.891408864844765,0.664569736706402,-1.65499012697632,-0.872459018188007,1.7733333333333334
533,-0.397955284062361,-0.25024848945574,0.885494304690734,0.552572159512758,-1.47901728797491,-0.719876213656465,1.7766666666666666
534,-0.403255830029269,-0.251128579244789,0.879243646866248,0.450406098724997,-1.55476555608752,-0.692372152675019,1.78
535,-0.404501410749966,-0.249256444121284,0.879993267781674,0.471933140975115,-1.697814690591,-0.762394793143808,1.7833333333333334
536,-0.404876524830144,-0.248135716892729,0.880001417970981,0.525609706856418,-1.80789366530631,-0.689919571011829,1.7866666666666666
537,-0.402866103223639,-0.251913261035325,0.883057048268986,0.593452690181736,-2.05854546006205,-0.514176252895983,1.79
538,-0.405284853105856,-0.247555480966336,0.885736086534176,0.640869140625,-2.40024686333871,-0.265424242072574,1.7933333333333332
539,-0.410273156183328,-0.247780759505167,0.889360801999788,0.633514110521741,-2.64163824935595,-0.334268727782561,1.7966666666666666
540,-0.40407627027558,-0.250796104405747,0.889309103244115,0.507938007659931,-2.83703527347564,-0.764246767797442,1.8
541,-0.39585859015723,-0.25059050502081,0.88404546697866,0.3814697265625,-2.89806839528825,-1.07106314091257,1.8033333333333332
542,-0.393440496042961,-0.250339711349551,0.880459276640838,0.315288188085566,-2.90762698717436,-1.22750484876314,1.8066666666666666
543,-0.394423806737442,-0.249624479456805,0.879230253686361,0.258846616331734,-2.67067425850236,-1.54534052975968,1.81
544,-0.395649696932702,-0.25090639214005,0.877206238644199,0.134960949051174,-2.37523386649135,-1.78804739505983,1.8133333333333332
545,-0.400911180945057,-0.251713807867692,0.875866998022852,0.0067971462790141,-2.15703757949407,-1.42960919400749,1.8166666666666667
546,-0.403231502378988,-0.24835661968009,0.876821972047506,0.0084631686115354,-1.88862931962018,-1.05563569224678,1.82
547,-0.403051246682965,-0.242424539899512,0.881903026137101,0.0214960170798684,-1.62300030668053,-0.689875012089527,1.8233333333333333
548,-0.404141044365195,-0.246624056917816,0.883894261008491,0.0977874193456292,-1.42809148690437,-0.484376063230262,1.8266666666666667
549,-0.400987188003283,-0.251017714194872,0.883062969657896,0.107929325523396,-1.3591500286484,-0.7788413736819,1.83
550,-0.399750726892181,-0.250488206843746,0.886919231148431,0.0836433807129292,-1.26871916523407,-1.13090064340901,1.8333333333333333
551,-0.403993366535589,-0.248960482711131,0.885237474506919,0.142995221912548,-1.31567823780367,-1.31904385068573,1.8366666666666667
552,-0.40266905278263,-0.248372129059626,0.87768538360063,0.227757930539422,-1.66212713550864,-1.20315349204712,1.84
553,-0.402830993040661,-0.249514167208364,0.875943411724229,0.2593994140625,-1.98817563810871,-0.788331700706726,1.8433333333333333
554,-0.407796933985041,-0.247759973241259,0.879850364485956,0.149188399617009,-2.06050051057393,-0.312507614023648,1.8466666666666667
555,-0.410421144346735,-0.248308156705362,0.879792457056178,-0.0429513454118598,-2.13284044261923,-0.158239769913302,1.85
556,-0.407755171194287,-0.255281394994234,0.881032436997036,-0.0412600913123143,-2.17635851691465,-0.566249466603083,1.8533333333333333
557,-0.403940902868653,-0.255209024140858,0.880368500328822,-0.0276823841623723,-2.08424230401256,-1.07827067430477,1.8566666666666667
558,-0.402868405136554,-0.253134091606936,0.874700696314172,-0.136192989540058,-2.07405920047756,-1.11052262711541,1.86
559,-0.401258537542674,-0.251042071792107,0.879361944219522,-0.138467248022334,-2.13509232229017,-0.940407283648459,1.8633333333333333
560,-0.401924596745272,-0.250013476768785,0.888334697979878,-0.1068115234375,-2.20346979340972,-0.914387162852775,1.8666666666666667
561,-0.404986921173472,-0.246841580633167,0.88783462357047,-0.0554046385543429,-2.27241735497788,-0.733073541644778,1.87
562,-0.411149696392572,-0.244317386400496,0.87954707546281,-0.176239970117954,-2.41422712976122,-0.510883371150748,1.8733333333333333
563,-0.409952849352432,-0.249870061679789,0.871705486123471,-0.16061188009085,-2.63575851307957,-1.04748211860567,1.8766666666666667
564,-0.402864583107555,-0.251235536683752,0.874472176330312,0.318016176684263,-2.86405906916281,-1.74225099340736,1.88
565,-0.403986056210994,-0.253149853460409,0.880896465769034,0.602434579697703,-3.02743168755101,-1.39961364777433,1.8833333333333333
566,-0.405549280146681,-0.253988898834408,0.888650058079648,0.595668967198297,-3.14777087572187,-0.525286180733267,1.8866666666666667
567,-0.404446926457124,-0.248936081224831,0.891175509830287,0.631219507665534,-3.44040537441214,-0.115306734437985,1.89
568,-0.405819417576502,-0.249941742214963,0.888342318823302,0.649944105651725,-3.56668572938199,0.0185514721073247,1.8933333333333333
569,-0.401134318263248,-0.253761041770202,0.88483155500719,0.514934528803507,-3.52980306359276,0.0125529805747785,1.8966666666666667
570,-0.395985595697104,-0.253181384024614,0.876846610206038,0.492719200035552,-3.52034232340195,-0.195462944634593,1.9
571,-0.399944938711326,-0.254306659866599,0.872880488040376,0.638544021207884,-3.33782372920906,-0.619579669518194,1.9033333333333333
572,-0.402426182905042,-0.254335525818271,0.872525331513211,0.74593377284357,-3.21284854326572,-1.05052725702059,1.9066666666666667
573,-0.402960351251256,-0.248500136055521,0.867987265149313,0.786119293864588,-3.03499442896885,-1.14324255110415,1.91
574,-0.401979518110736,-0.243004327916776,0.868242847548531,0.734174869531104,-2.74391945455688,-0.954809894530521,1.9133333333333333
575,-0.400387007661964,-0.24134008689089,0.875916751307087,0.774686149813093,-2.44784508601975,-0.643795884270339,1.9166666666666667
576,-0.398653008899468,-0.240510395939048,0.880259967091584,0.855078553447764,-2.21486987785355,-0.476540656624081,1.92
577,-0.399896920730608,-0.242689685680743,0.884274503108848,0.685183636529071,-2.09280363422834,-0.418148241302602,1.9233333333333333
578,-0.402069718828087,-0.251916840099619,0.882590547357628,0.452782079076965,-1.97807258494181,-0.494439643568353,1.9266666666666667
579,-0.400892761090892,-0.254992831091427,0.879650313623864,0.337461612186551,-1.94461147906297,-0.409367959788979,1.93
580,-0.396552686853361,-0.249770182372305,0.882526672690371,0.0405549701083535,-1.94638125770258,-0.208650609045226,1.9333333333333333
581,-0.398911456116306,-0.245389112405036,0.879075560606783,-0.324219526575652,-1.89327274783249,-0.284002471775041,1.9366666666666668
582,-0.405276105531102,-0.242935874459215,0.875999187024702,-0.434579253651278,-1.89823806513139,-0.662499679850848,1.94
583,-0.401158601531163,-0.242962826516265,0.874955246963008,-0.55249465219141,-1.7765478825151,-0.907601205979427,1.9433333333333334
584,-0.399855475575502,-0.247891594207413,0.878958138617496,-0.774036716306142,-1.63150142229283,-0.805545203511277,1.9466666666666668
585,-0.406867468546602,-0.249623574012142,0.88675249094178,-0.965657740430548,-1.77318251891098,-0.635324069299878,1.95
586,-0.406916754184746,-0.2456468181567,0.887261447987359,-1.07484982170415,-1.92141434560554,-0.315913467675182,1.9533333333333334
587,-0.403693276515292,-0.24899237500542,0.889108386001414,-1.12795527991814,-2.0777454865271,-0.221113616342911,1.9566666666666668
588,-0.401628762932803,-0.252311152463087,0.889596765496983,-1.18898840173074,-2.21985452230769,-0.581178366898909,1.96
589,-0.401648169568809,-0.250434893576264,0.889294923931057,-1.17672552718497,-2.29374959984755,-0.930920654958458,1.9633333333333334
590,-0.407315919276839,-0.247906272180205,0.886390684107917,-1.15846675473095,-2.51169412521727,-1.32703584834019,1.9666666666666666
591,-0.406445523496711,-0.247988347395375,0.881461725544718,-1.13155688753786,-2.74357391010893,-1.26998014587822,1.97
592,-0.40000429949406,-0.253921715011702,0.878879011935738,-0.906897610603559,-2.69829872183002,-1.09381168092468,1.9733333333333334
593,-0.400725290394475,-0.255306987959714,0.878968004314816,-0.70311161420622,-2.53416630170622,-1.11811721222177,1.9766666666666666
594,-0.405611048860369,-0.251508888512799,0.880392592124369,-0.700694945106389,-2.43649789694813,-0.985098908357709,1.98
595,-0.400621348146617,-0.253010884384273,0.876924784273457,-0.512625435607582,-2.27719372893053,-1.06387538265396,1.9833333333333334
596,-0.397166848254664,-0.25658231849866,0.876569836356975,-0.245354045643394,-2.10142040286308,-1.50459852948057,1.9866666666666666
597,-0.399909070291103,-0.256846572857477,0.879637031594146,-0.16966986230869,-1.96288144092264,-1.78099142725343,1.99
598,-0.399025250969436,-0.251273202202338,0.879638946394484,0.0976803520510836,-1.77549823408185,-1.47397492138642,1.9933333333333334
599,-0.402792821734065,-0.245316923515358,0.875632236768419,0.313719818747938,-1.60339237551808,-1.00157748070718,1.9966666666666666
600,-0.402762710770355,-0.242652426165048,0.87541470252805,0.443721095780585,-1.5643312685045,-0.733032654196492,2.0
601,-0.402997142457803,-0.246770889458531,0.878234562183245,0.566410584558051,-1.49780851378573,-0.585340152111652,2.0033333333333334
602,-0.406935784371707,-0.254661953926824,0.87820501284829,0.548090778982233,-1.33912733158899,-0.383920981098033,2.006666666666667
603,-0.403051792882663,-0.258496593001761,0.883068640410189,0.535899109745225,-1.40437893347664,-0.3204345703125,2.01
604,-0.402142574953215,-0.251531498984876,0.881324554962921,0.415061545043883,-1.80657317736835,-0.298468658825665,2.013333333333333
605,-0.40466033712374,-0.249912786260754,0.88116713123643,0.460158211441434,-2.11789235323761,-0.238050893693696,2.0166666666666666
606,-0.401773369634918,-0.255927940974097,0.88658218199181,0.5950927734375,-2.23387039138457,-0.46191857578144,2.02
607,-0.401603012483096,-0.25382299386376,0.886584334589274,0.60973366277263,-2.22963690230711,-0.806244221403021,2.0233333333333334
608,-0.405340022913901,-0.247731808150428,0.881199165419415,0.632930287620719,-2.30644574892723,-0.906350656853597,2.026666666666667
609,-0.403554758510778,-0.24874332583208,0.874360380012362,0.662827422971608,-2.54387823428417,-0.975322631670478,2.03
610,-0.403304726097199,-0.25113404875387,0.872173460948024,0.9647644237144,-2.87459686206071,-1.45353412733594,2.033333333333333
611,-0.406602804271879,-0.248447169952396,0.87675787221908,1.25916108195733,-2.98837999483705,-1.78417959610385,2.0366666666666666
612,-0.410282918766999,-0.246190857903569,0.886341648052322,1.24390280150418,-2.89730096441244,-0.944184691509286,2.04
613,-0.409834703736133,-0.247902910925453,0.891522605815183,1.17742276997069,-3.02543761218874,0.130294424664378,2.0433333333333334
614,-0.406799865470376,-0.248336847945532,0.892861442240985,1.15779290797526,-3.13474362195638,0.510856923464626,2.046666666666667
615,-0.400394406666859,-0.250276069027413,0.891138381518535,1.19081158435194,-3.20978396648696,0.248092923792123,2.05
616,-0.394703744681236,-0.252760013978644,0.886705483442282,1.18224262499593,-3.15564285162354,-0.382306257625307,2.0533333333333332
617,-0.397358152731685,-0.25363946451606,0.878863841467599,1.08777052683787,-2.99260687199302,-0.791572815506984,2.0566666666666666
618,-0.398579422136489,-0.251555573625289,0.870151295355439,0.793691250881627,-2.95957598899197,-0.714880949037006,2.06
619,-0.401567711689958,-0.244832081981943,0.865054717583961,0.573149749371345,-2.84380572279057,-0.572519643019615,2.0633333333333335
620,-0.40437275116474,-0.243590512379075,0.866428958334675,0.403039751329234,-2.44482151795116,-0.725479515725342,2.066666666666667
621,-0.400363359409852,-0.23942686434464,0.869526837026569,0.244140625,-2.07167483309806,-0.936835175370937,2.07
622,-0.403802123777905,-0.239818444247065,0.87269395475298,0.178325285253963,-1.84406592509776,-0.676737063379163,2.0733333333333333
623,-0.406924079813437,-0.245025221334502,0.878981928546997,-0.0321223080043423,-1.7967320580159,-0.197393703159674,2.0766666666666667
624,-0.407084894856536,-0.24529952828997,0.882051123625136,-0.161170073824075,-1.97251962514506,-0.213312535841046,2.08
625,-0.406249022815909,-0.246217283489565,0.885083683441988,-0.203130708856164,-1.92833330885017,-0.492411491379756,2.0833333333333335
626,-0.404263577408887,-0.245140279111317,0.886664232754558,-0.472049292553547,-1.82183222576223,-0.353199770586669,2.0866666666666664
627,-0.404460128625554,-0.240575701962346,0.882696772621153,-0.759748232618504,-1.9054339005086,-0.0775704335150985,2.09
628,-0.404598310993593,-0.240045488721429,0.879499945444,-0.963499384248742,-2.13586909678124,-0.308927866552483,2.0933333333333333
629,-0.40496806853587,-0.24454498376536,0.876403880045918,-1.01823100461912,-2.3492132370863,-0.741277878675472,2.0966666666666667
630,-0.402476241399056,-0.245841059523228,0.879600113331188,-1.15004853238908,-2.37972979799261,-0.878342314729842,2.1
631,-0.406079639768897,-0.244050570209793,0.884575027689658,-1.45432394707633,-2.60026054802218,-0.73025214076555,2.1033333333333335
632,-0.409735731598773,-0.24346860613972,0.884989567385363,-1.56241755341929,-2.8228759765625,-0.3904763492895,2.1066666666666665
633,-0.41147376890999,-0.245424216470886,0.885231446489445,-1.71178116393011,-2.86671930150954,-0.116696133915949,2.11
634,-0.40577164074016,-0.253073469687748,0.885653877366995,-1.72145400427264,-2.95096227201329,-0.324076795995667,2.1133333333333333
635,-0.400864720097046,-0.256561282447696,0.880805464722239,-1.45604877944629,-2.99802885985581,-0.83684387428013,2.1166666666666667
636,-0.400194443716649,-0.251105645369892,0.875461368385294,-1.38466541027002,-2.9329244953479,-1.03223415846228,2.12
637,-0.402201065587526,-0.250082074906964,0.875503885478598,-1.46549216628827,-2.92644541855864,-0.932731381677317,2.1233333333333335
638,-0.402955275821706,-0.250680273274637,0.879682918947714,-1.4495849609375,-2.88910660086828,-1.03110332118028,2.1266666666666665
639,-0.39893203595047,-0.248926479833042,0.880765423938889,-1.23776405505337,-2.58654076027046,-1.05140633267505,2.13
640,-0.396260653913862,-0.249951856440852,0.878811090735316,-0.985169096447795,-2.32989693778088,-1.10477105034141,2.1333333333333333
641,-0.401645117672376,-0.249718305014673,0.879075512921029,-0.844453279742004,-2.15605665395394,-1.28369573673919,2.1366666666666667
642,-0.401582542666225,-0.253815164770098,0.879322883776487,-0.760978945979736,-2.03007244769425,-1.27977777410474,2.14
643,-0.397119090968313,-0.255502534808344,0.878514615542629,-0.618860317305931,-1.91193027001569,-1.41514026520976,2.1433333333333335
644,-0.402555247772713,-0.254646348043042,0.879882224096697,-0.287859660619024,-1.84434686610505,-1.38649247311902,2.1466666666666665
645,-0.408998081006578,-0.256754674391989,0.879256275449245,-0.0430711279401225,-1.84828313867605,-1.1928117630264,2.15
646,-0.410547141725933,-0.255410563558768,0.873375107900679,0.112796989827377,-1.89544502511368,-1.00504003927442,2.1533333333333333
647,-0.408034985235209,-0.252522754140359,0.871917560090545,0.291289796203961,-2.02080166806839,-0.687248469221762,2.1566666666666667
648,-0.405994612369548,-0.251033208087228,0.877841335231401,0.369508965969704,-2.05927691774356,-0.378787374735805,2.16
649,-0.406170544985635,-0.25357179557622,0.883445399230238,0.231524327588029,-2.19198064169894,-0.222903998687831,2.1633333333333336
650,-0.406980142014515,-0.254308066534917,0.882544451979587,0.262728147740079,-2.30473878856883,-0.263389787871413,2.1666666666666665
651,-0.402442607140164,-0.254684466201693,0.880992485428054,0.293230278937679,-2.46397193992457,-0.31446181915634,2.17
652,-0.400381872498132,-0.253413840256346,0.888679413876524,0.337681520072067,-2.74989754108452,-0.420609348062726,2.1733333333333333
653,-0.395555371074457,-0.254794256910897,0.893549773890427,0.545992947312864,-2.74393782512445,-0.733072005763265,2.1766666666666667
654,-0.398323335278541,-0.253097282934761,0.88980200399254,0.581831111393356,-2.66099441889095,-0.688668893869972,2.18
655,-0.407691832807791,-0.251308288068767,0.875220512327338,0.366248894554163,-2.81024613534511,-0.457763671875,2.183333333333333
656,-0.40500902405062,-0.254866542296578,0.863455552643032,0.431153244272828,-3.04641586495192,-0.764175629873788,2.1866666666666665
657,-0.400823695755485,-0.248175539579191,0.866107488615023,0.782149453076596,-3.10817299719869,-1.21535303970232,2.19
658,-0.411847001144315,-0.244752305824157,0.873324435485329,0.8697509765625,-3.15321111289022,-0.86863057409831,2.1933333333333334
659,-0.414610607219551,-0.245426739740427,0.885303448223144,0.847868985618155,-3.27334565145605,-0.0081342903094227,2.1966666666666668
660,-0.410164871049885,-0.248097933911685,0.895079568623974,0.678104841933049,-3.19973946402612,0.570428611918731,2.2
661,-0.404732817752596,-0.250965430334909,0.898365196154612,0.526091807887752,-3.17180963638901,0.851800869352014,2.203333333333333
662,-0.400264002497317,-0.249984815964406,0.895269431696555,0.490302790267089,-3.2123120210341,0.79884780529557,2.2066666666666666
663,-0.404145038997372,-0.252408528469744,0.887030472563318,0.318541519563616,-3.27726532856552,0.496379617692752,2.21
664,-0.403654420308022,-0.25080052377462,0.885389801733633,0.161231106945881,-3.32776777801118,-0.0083567379423665,2.2133333333333334
665,-0.399155790185224,-0.246947546817464,0.882080326716514,0.115456265586431,-3.23757087489715,-0.533225781571408,2.216666666666667
666,-0.396671391410885,-0.244376200088903,0.875554324889795,-0.0323846897971626,-3.15924725156798,-0.659517507839904,2.22
667,-0.395771728905358,-0.240820838118775,0.873513733370077,-0.197006392114135,-2.96106234420853,-0.41945556602851,2.223333333333333
668,-0.392823428948896,-0.243844371631834,0.870558651002326,-0.309065450407941,-2.77641965930713,-0.163957010529559,2.2266666666666666
669,-0.394460589899541,-0.246735751338608,0.867975071192307,-0.506062178944445,-2.71946928955787,-0.163760875968056,2.23
670,-0.402280668130173,-0.248921055307568,0.86861673228322,-0.6256103515625,-2.58875169186221,-0.361437045963084,2.2333333333333334
671,-0.405043435416247,-0.249879764775873,0.870886812946885,-0.756792437609312,-2.40177689832819,-0.55318929129944,2.236666666666667
672,-0.400987840128161,-0.245836785928345,0.879185755940158,-0.885693784567665,-2.05425399957231,-0.713742991224175,2.24
673,-0.399053931253934,-0.244932112168853,0.882935604903224,-1.01548850557393,-1.71446466429085,-0.698727637392569,2.243333333333333
674,-0.398712754174188,-0.250126849991415,0.883480935657818,-1.24779043622471,-1.65977774091221,-0.551374566390175,2.2466666666666666
675,-0.403828070802044,-0.249971053598589,0.886172276063639,-1.19636918226384,-1.8123605454437,-0.576398631381199,2.25
676,-0.407286468788761,-0.251142208904945,0.882737591715845,-0.921720134107066,-1.95765799935272,-0.721696085290217,2.2533333333333334
677,-0.407265299159501,-0.251625146312166,0.885022807182379,-0.749058874134803,-2.16054610154964,-0.749747979170955,2.256666666666667
678,-0.41013085135895,-0.250334923384128,0.886738340431971,-0.739016086148985,-2.59545048459064,-0.344971960087407,2.26
679,-0.412455012893385,-0.252016483814986,0.886003121353186,-0.60997913244095,-3.07467285641603,-0.0707648295241569,2.263333333333333
680,-0.411783256661065,-0.2507160393245,0.88908712265531,-0.427938250442243,-3.23555543794224,-0.445997008106876,2.2666666666666666
681,-0.406746558916986,-0.250504978806854,0.885946238487525,-0.397421689535936,-3.22688729976328,-1.02304100412034,2.27
682,-0.405229809063534,-0.251041627938471,0.879386290365566,-0.374187427596069,-3.12562879675353,-1.29977383483105,2.2733333333333334
683,-0.401193977769059,-0.250899032032853,0.878265857589091,-0.431747050713767,-3.12249009102586,-1.13401684906331,2.276666666666667
684,-0.397312690059088,-0.243142686054505,0.878775053158215,-0.387039531098735,-2.878776701178,-0.752931442521293,2.28
685,-0.397783313413721,-0.239715950092411,0.875899094703486,-0.346768691723174,-2.45008150870983,-0.29758666283043,2.283333333333333
686,-0.398870488514626,-0.242397313556393,0.875793641078683,-0.362421972993064,-2.40430666735038,-0.0274268736224843,2.2866666666666666
687,-0.398354955335117,-0.24381113386108,0.880123454174368,-0.238259423526551,-2.21293670759713,-0.0620214171616063,2.29
688,-0.392609070800911,-0.248764410113126,0.884428377628518,-0.285715225536628,-1.99302270876078,-0.206343799564656,2.2933333333333334
689,-0.392667047260297,-0.245442999364966,0.884287727087729,-0.396027203964486,-1.86578013558808,-0.292987860925411,2.296666666666667
690,-0.397005171540322,-0.242687704194452,0.88091606209637,-0.477491375512317,-1.74090661088341,-0.389450285533354,2.3
691,-0.397975060186713,-0.24500092809999,0.880126632645998,-0.629371342555261,-1.67987348907081,-0.294137068774943,2.3033333333333332
692,-0.395591778567871,-0.245933095751394,0.882284807632209,-0.768103576048126,-1.49512774841812,-0.154700980574821,2.3066666666666666
693,-0.394678231367107,-0.247214026121705,0.881259844837347,-0.874911539220205,-1.26930101432869,-0.0995348191738992,2.31
694,-0.404215812962451,-0.25025186612722,0.877014939487542,-0.996271893700758,-1.04536803154398,-0.186143277880262,2.3133333333333335
695,-0.407049473017432,-0.253849008814552,0.876284178383272,-1.14814779186896,-0.680583113394967,-0.406327984905982,2.316666666666667
696,-0.399642320467415,-0.249155470814468,0.874985920269655,-1.37419030433803,-0.400270676581957,-0.490406546574174,2.32
697,-0.396871601242131,-0.248019773743874,0.874049823758532,-1.47495621746655,-0.262237211702841,-0.507976911248367,2.3233333333333333
698,-0.402475472280488,-0.250022410574549,0.88199224836819,-1.42634154402936,-0.0601551946922065,-0.688946402627863,2.3266666666666667
699,-0.404210204933352,-0.249255590324982,0.885257118742495,-1.434326171875,0.193383870880108,-0.735979294237423,2.33
700,-0.40051425099863,-0.251014717565824,0.878540826324993,-1.4925113238603,0.196078621277572,-0.357929025762862,2.3333333333333335
701,-0.403279222484138,-0.253528214464559,0.871607609789122,-1.46185222432044,-0.250974647184041,-0.168697650512428,2.3366666666666664
702,-0.406766897090317,-0.257447307090084,0.868865997904921,-1.00169801436865,-0.959413647914379,-0.989470234023393,2.34
703,-0.409886769973358,-0.255772140223017,0.874011719821673,-0.472190817267789,-1.56092198260349,-1.87694714563494,2.3433333333333333
704,-0.416325387728606,-0.249274585986832,0.88305106797046,-0.247723474704835,-2.10592371092719,-1.57932672248594,2.3466666666666667
705,-0.415265019656965,-0.248968214424182,0.893438288763944,-0.218740886347438,-2.64498307663975,-0.391949345892965,2.35
706,-0.412337316197852,-0.249481222380824,0.899500291494907,-0.15106663330983,-3.02859437527551,0.452733441226463,2.3533333333333335
707,-0.414292329267598,-0.251237162307215,0.895707155986372,-0.044337123993392,-3.34973737777946,0.535496860381608,2.3566666666666665
708,-0.413706385428045,-0.25398825370196,0.888498571928408,0.0763566322783359,-3.40775443264778,0.081933681906858,2.36
709,-0.411403443142064,-0.255475298074095,0.877324455089813,0.251409191514023,-3.27409273795793,-0.614063855011245,2.3633333333333333
710,-0.409529172523819,-0.258343124413445,0.872701903427618,0.28847164568121,-3.21378178078911,-1.0296482504654,2.3666666666666667
711,-0.399380695263084,-0.256574196153642,0.869177870933827,0.364039866084466,-3.11568773063738,-1.24904963170947,2.37
712,-0.394033165330568,-0.249013441059807,0.866380931370464,0.491924752233289,-2.92095108015234,-1.19525850070877,2.3733333333333335
713,-0.399968596344165,-0.247083422855489,0.869520463369822,0.58710051645163,-2.67536816030218,-0.894444189445122,2.3766666666666665
714,-0.400583463422474,-0.249439995669675,0.872671279996597,0.566028679568364,-2.38909199928518,-0.621251296606943,2.38
715,-0.40047390346407,-0.248134023661935,0.8772177243539,0.417809379460552,-2.07375187241512,-0.49845780224446,2.3833333333333333
716,-0.4047173147837,-0.247669007939137,0.87911573288449,0.202736917204487,-1.77077106722006,-0.384384832823825,2.3866666666666667
717,-0.402862629202139,-0.252799340371721,0.879736586829272,0.019637551766637,-1.62323655069619,-0.531105001850419,2.39
718,-0.400794187869592,-0.253318143091707,0.879571056571419,0.0108739230461646,-1.61962407363317,-0.799259398274444,2.3933333333333335
719,-0.398698121398217,-0.251653768061823,0.879108762917024,0.114075003858043,-1.80408664689487,-1.12250913483867,2.3966666666666665
720,-0.401626630627782,-0.25059777445458,0.880127232410674,0.252803805101458,-2.06719949524869,-1.59411155172123,2.4
721,-0.410234547355071,-0.248601636756168,0.875989171342591,0.33136634680843,-2.20591965013314,-1.69739489923159,2.4033333333333333
722,-0.412139545059746,-0.247371053516508,0.877135442628078,0.252137459470005,-2.29901983347753,-1.34873932070267,2.4066666666666667
723,-0.408291447109239,-0.248001376274464,0.88395030015558,0.265924962949436,-2.4027938038167,-0.842274511801281,2.41
724,-0.408609466022496,-0.250734149732244,0.890916754749005,0.181002931580505,-2.6077791010577,-0.6030906251262,2.4133333333333336
725,-0.407547785766703,-0.251651842248403,0.889443949837926,0.06103515625,-2.70511436669255,-0.653176203553099,2.4166666666666665
726,-0.403107060336073,-0.254351005639496,0.883766047278898,0.053775236094896,-2.98037737371791,-0.876881329349789,2.42
727,-0.404704202440309,-0.25613460435252,0.880875593865604,0.0312575440959936,-3.3277556994028,-1.16900703004455,2.4233333333333333
728,-0.406190568316041,-0.253117696547494,0.878812695015505,-0.0282946285559136,-3.41293279663268,-1.04293546753842,2.4266666666666667
729,-0.403553414799062,-0.251609185902847,0.876457859787517,-0.0400019736772176,-3.22628249586298,-0.951657705628468,2.43
730,-0.400865761310927,-0.249477326673712,0.874199957610239,-0.0145157714354132,-3.03147019060105,-1.19595739733853,2.433333333333333
731,-0.403168436378152,-0.246674975680134,0.87490598400625,0.114629964042216,-2.79402943947848,-1.35207994779627,2.4366666666666665
732,-0.402236777434092,-0.245364211842241,0.874566168927779,0.151291438641814,-2.5286823241339,-1.24788274709415,2.44
733,-0.402688376774375,-0.247206845499139,0.87517483825186,0.0225151489521611,-2.24623060226233,-1.09341032751776,2.4433333333333334
734,-0.403460939553306,-0.250725371743051,0.879393100612508,-0.0783201910797292,-1.90532238704527,-1.15465337697529,2.4466666666666668
735,-0.401791980592271,-0.248085976471051,0.880250840169058,-0.0822787750770688,-1.72723557894478,-1.05510075647421,2.45
736,-0.404489143595235,-0.249435223945212,0.876189853702692,-0.005007471243823,-1.69222734405897,-0.920022069385589,2.453333333333333
737,-0.409549679117389,-0.249512463359397,0.872987426931055,-0.0973067835113386,-1.57915665501715,-0.635362147616039,2.4566666666666666
738,-0.406995265698555,-0.249325527497962,0.873330398224324,-0.188105819462925,-1.45533646702709,-0.354707925320821,2.46
739,-0.404930409397049,-0.247752212361843,0.877608061193921,-0.193367467364996,-1.50261463635857,-0.325431360760004,2.4633333333333334
740,-0.411179007089762,-0.245887786855254,0.878673886081804,-0.1373291015625,-1.61215931192661,-0.243666533702278,2.466666666666667
741,-0.407514576798985,-0.247935149512427,0.878284744311925,-0.238861175770769,-1.97807334958317,-0.17132793553864,2.47
742,-0.406823997962858,-0.252523120033446,0.87574239379001,-0.329196801220923,-2.30906325808868,-0.353672585334332,2.473333333333333
743,-0.408438468960837,-0.256933083318579,0.87406121127104,-0.47195507856211,-2.43762504264929,-0.552030231225323,2.4766666666666666
744,-0.405561706009323,-0.253427971373572,0.881721484149171,-0.641626399313842,-2.53945249087299,-0.815644763797734,2.48
745,-0.407135479634691,-0.250023861981595,0.88619514328794,-0.640110864717458,-2.50547450988017,-0.810564874625526,2.4833333333333334
746,-0.410636247355332,-0.247523292285239,0.879472849763351,-0.714125913432565,-2.6371494451396,-0.479856099073603,2.486666666666667
747,-0.410061040881443,-0.245304868272098,0.870318028088175,-0.7781982421875,-3.08536921416857,-0.40093651360405,2.49
748,-0.405168922297313,-0.249552870449542,0.873536611302564,-0.466502819961687,-3.35617226618638,-0.719479306418375,2.493333333333333
749,-0.402447133095362,-0.254238063641622,0.882569354508166,-0.0640845353792989,-3.56064615845478,-0.999069511202588,2.4966666666666666
750,-0.404884566234053,-0.258546589319904,0.887233782563429,0.0144954270614755,-3.86314117433709,-0.782400958672129,2.5
751,-0.409826086478427,-0.253597153973868,0.888494492074154,-0.0057184464819598,-4.10498204975645,-0.519563207344716,2.5033333333333334
752,-0.408272790183614,-0.249721562652973,0.887088021061332,-0.0240362782513766,-4.17748848900505,-0.496293342750459,2.506666666666667
753,-0.40555851308152,-0.250678590700231,0.884253354578844,-0.0507233139188599,-3.95167790239881,-0.423065560675752,2.51
754,-0.402994327553656,-0.253296740245661,0.876402805026265,-0.128548560717533,-3.6038051410422,-0.517602767584421,2.513333333333333
755,-0.39665763940888,-0.256466206153149,0.87132871353558,-0.239529936432935,-3.17009605735516,-0.687413955907011,2.5166666666666666
756,-0.39862305604077,-0.25381917409197,0.867650231054196,-0.147332150634133,-2.93693216187465,-0.990151841234545,2.52
757,-0.402863433581752,-0.251658363830049,0.867676389495414,0.0755234627805978,-2.67691261824644,-1.48765650280598,2.5233333333333334
758,-0.396327448896982,-0.250447403359861,0.875410090254391,0.19296375955833,-2.3658838044381,-1.61173099547024,2.526666666666667
759,-0.396590937259306,-0.252129821009169,0.877781028193692,0.355877733576208,-2.10358689004056,-1.37609060017927,2.53
760,-0.400480772155666,-0.249918363449716,0.877955382408962,0.520626716246331,-1.74414315825294,-1.07275643950294,2.533333333333333
761,-0.399042982566583,-0.246624729967175,0.877902800876018,0.532237358206417,-1.71312828820115,-0.853446479925606,2.5366666666666666
762,-0.400805346126347,-0.250303424692152,0.879565405691524,0.4119873046875,-1.71286221812694,-0.695438255281833,2.54
763,-0.401567569006801,-0.249814413860697,0.885098194579682,0.455433914342759,-1.51683280394014,-0.852414258980246,2.5433333333333334
764,-0.401925084406805,-0.246137753343435,0.882594755898289,0.38769055106474,-1.55508344368428,-1.08181881731194,2.546666666666667
765,-0.402210138185168,-0.245270729245747,0.878518825820898,0.244919245281472,-1.8408631345922,-1.08493126400044,2.55
766,-0.402761056392185,-0.24639150738276,0.877569882064816,0.330235896873801,-1.79385433281438,-1.16145008202996,2.5533333333333332
767,-0.40776293806457,-0.248672229945591,0.878501367223733,0.406309546953432,-1.71153951385858,-0.984936527205647,2.5566666666666666
768,-0.409329100435737,-0.245665464582138,0.884213947411163,0.3010639104378,-1.86646580837477,-0.388301262876235,2.56
769,-0.408358004035745,-0.246602347432021,0.883594531595494,0.424309184671653,-2.06736842093734,0.0821604644998025,2.5633333333333335
770,-0.411803464962276,-0.249987667839691,0.883783245184524,0.582968809874832,-2.28568353387517,0.195045248343519,2.566666666666667
771,-0.410600879006839,-0.249035740334218,0.886454765420529,0.424717402577526,-2.50906823578226,0.0923374579686578,2.57
772,-0.402923768325036,-0.250370221552132,0.885742401400464,0.26977890143698,-2.88816955050208,-0.0756730613140612,2.5733333333333333
773,-0.402277255918421,-0.253408256926091,0.881786796779887,0.177442969296383,-3.09832093771855,-0.135600392264149,2.5766666666666667
774,-0.403033706993608,-0.249411409719221,0.879913071175481,0.0070899772477762,-3.08951089753137,-0.268501530785574,2.58
775,-0.405833123486996,-0.245159195374255,0.879763334973262,-0.0866841134833058,-3.06135918820236,-0.679546375596499,2.5833333333333335
776,-0.408127423922379,-0.246547485642103,0.877521576661936,-0.030517578125,-3.00677125499964,-0.773333181561255,2.5866666666666664
777,-0.405176577754717,-0.243998508648487,0.876553071529512,-0.0883894267516566,-2.83157507252669,-0.608653369762519,2.59
778,-0.404545539851363,-0.244378753121436,0.877814398401427,-0.08748663840416,-2.66226276934398,-0.48828125,2.5933333333333333
779,-0.400397301622411,-0.248244262839052,0.880330222914487,-0.0441906445010294,-2.77878254383199,-0.618474599473382,2.5966666666666667
780,-0.39592355199494,-0.249285592831602,0.883487216304202,-0.184780774066798,-2.81961291412185,-0.820799095127292,2.6
781,-0.39922363614566,-0.24765181815412,0.883427606465537,-0.261784101404386,-2.72409129554656,-0.942865338752486,2.6033333333333335
782,-0.403881022937869,-0.246531517793891,0.882765712227813,-0.437797625854255,-2.57866713052481,-0.949228573872289,2.6066666666666665
783,-0.399216896165438,-0.246986578129131,0.880604674614092,-0.672183648968022,-2.45507117862646,-0.950088130425151,2.61
784,-0.40013451913243,-0.247148847478307,0.877068619723891,-0.793505925132393,-2.38595672580705,-0.950034659058609,2.6133333333333333
785,-0.405431976819684,-0.247851173102929,0.874588491912871,-0.960504746282087,-2.17957071166644,-0.833601415544783,2.6166666666666667
786,-0.405681843493512,-0.245460721633348,0.872619221113325,-0.962103692811613,-1.99567187296387,-0.865751067191935,2.62
787,-0.403485792795205,-0.246446453836377,0.876055094121694,-0.866527077041676,-1.90011973782765,-1.02556276670832,2.6233333333333335
788,-0.4005487404651,-0.251517216422695,0.876829393330043,-0.836025333191475,-1.84149113912152,-1.04883612418303,2.6266666666666665
789,-0.402949706494423,-0.251293784434304,0.876572166334155,-0.8713570436229,-1.8431013424417,-0.96933462223385,2.63
790,-0.404185357075941,-0.248767049508695,0.879468820886129,-0.8392333984375,-1.8856665253421,-0.917939495996699,2.6333333333333333
791,-0.404558083541867,-0.253733125877413,0.88582877208038,-0.774191653510448,-1.7459424968658,-0.775801789445647,2.6366666666666667
792,-0.409141334609707,-0.253840050745099,0.88912384846164,-0.701904296875,-1.38618837860566,-0.924309036583655,2.64
793,-0.413078207649446,-0.251034586453255,0.881618209732877,-0.687452610217491,-1.39650659378892,-1.03924993937614,2.6433333333333335
794,-0.414684371199204,-0.252755917813982,0.870392231141267,-0.656936049311182,-1.95383763583622,-1.20130825403162,2.6466666666666665
795,-0.411021281484155,-0.255172730408433,0.869140074649447,-0.250728530681819,-2.27916612273779,-1.81810849802189,2.65
796,-0.408104096702712,-0.253360978191299,0.879258044641374,0.25534864375709,-2.56496273252411,-1.67063353246029,2.6533333333333333
797,-0.412584299141865,-0.24947421210528,0.888235196851889,0.31402193270091,-3.10541569460544,-0.751155547061389,2.6566666666666667
798,-0.411846009726267,-0.25075025598663,0.894366049999338,0.239353890213413,-3.59773906855184,0.0022637730868974,2.66
799,-0.411398530479632,-0.251591752954826,0.898530632711068,0.31311571885798,-3.91581634904232,-0.0656262112074498,2.6633333333333336
800,-0.413371042461879,-0.252805763052203,0.896541037560936,0.551653351698104,-4.08609857700653,-0.550024905826367,2.6666666666666665
801,-0.404690899754919,-0.254410979173361,0.887124086583219,0.562244861785892,-3.8615196468412,-0.831080996891898,2.67
802,-0.400453735365018,-0.254240478288641,0.878176704044619,0.47942746940886,-3.52559653081076,-0.91238736477168,2.6733333333333333
803,-0.402519266952796,-0.254859081793009,0.872800928686418,0.626292912062093,-3.45175542649284,-1.00449354025675,2.6766666666666667
804,-0.407765995715512,-0.24860398583077,0.868047683031048,0.871243182513851,-3.14918296721953,-1.12602160105234,2.68
805,-0.406586711743482,-0.244144359457975,0.867644451758402,0.977381809029355,-2.73951633248105,-0.871543635868833,2.683333333333333
806,-0.398396757388063,-0.244462620248609,0.866864250668159,1.07681141345313,-2.34771994653125,-0.498945491224607,2.6866666666666665
807,-0.396079075102845,-0.242866299444476,0.868589743561375,1.08994477117147,-1.97495453679647,-0.13110509063421,2.69
808,-0.396417099853204,-0.245946595222634,0.874420008046795,0.954085496748973,-1.78134954886576,-0.0913697023945117,2.6933333333333334
809,-0.399846067467885,-0.248549833251986,0.877933808924231,0.974915744191725,-1.64402502478737,-0.439018675637891,2.6966666666666668
810,-0.401574910546068,-0.249251804821613,0.881561782934048,0.927690911456856,-1.49948330373919,-0.778820278174632,2.7
811,-0.402799361578352,-0.246410163226422,0.882862012336125,0.593865994180994,-1.41185069445201,-0.99491091571534,2.703333333333333
812,-0.404526226104642,-0.246957389635969,0.879722379332831,0.277137491805686,-1.46875421151022,-0.946266608165923,2.7066666666666666
813,-0.40435431190287,-0.246387944951106,0.877273316078387,0.0701370708182137,-1.50505933960357,-0.8439667292425,2.71
814,-0.406972564566915,-0.243715551552555,0.881586500443975,-0.121241848502378,-1.55864086292171,-0.921914042284817,2.7133333333333334
815,-0.408005623464439,-0.244508199471329,0.884844837150375,-0.187831679024116,-1.85800366373588,-0.917186306182648,2.716666666666667
816,-0.409969554303472,-0.245981027515698,0.882817847244016,-0.186427462490062,-2.14733676563742,-0.704656132781444,2.72
817,-0.411118336476387,-0.247821190121123,0.882250535995331,-0.259129409883455,-2.43697866755238,-0.662240046559132,2.723333333333333
818,-0.410183917954377,-0.251261726393088,0.886244266777558,-0.29657725516677,-2.85061628831364,-0.882512167007774,2.7266666666666666
819,-0.406615812684253,-0.253701474865547,0.885378407485892,-0.38422526425834,-2.98684423712875,-1.03897542509792,2.73
820,-0.405020423423489,-0.249046428215265,0.876037639244311,-0.503004466664638,-2.95048926531922,-1.41209184942207,2.7333333333333334
821,-0.404990681281011,-0.247407582648234,0.872186759002526,-0.301306517097009,-2.976299451716,-1.58555155193251,2.736666666666667
822,-0.401507453878571,-0.248414529313853,0.872784451551693,-0.272148397883395,-2.86646086057556,-1.37109953245056,2.74
823,-0.397887607841812,-0.247643589743317,0.878376846945213,-0.140169944104916,-2.60320794924983,-1.28090066228411,2.743333333333333
824,-0.398051911391009,-0.245392228040441,0.887126860013782,0.0538250798110465,-2.30357616147529,-1.15279554153343,2.7466666666666666
825,-0.405825698915598,-0.247862040908218,0.885275868071956,0.0674050706763109,-2.03697582594213,-0.811582093322409,2.75
826,-0.404564994939417,-0.252741423252685,0.881388344778835,0.0771346159344843,-1.84883548842845,-0.732905569244383,2.7533333333333334
827,-0.396557050533959,-0.254079185845793,0.879930322750272,0.0898693586936319,-1.83657986242954,-0.999504887558843,2.756666666666667
828,-0.396140402078545,-0.250186526640932,0.876688585069243,0.107654228496878,-1.81916671867501,-1.2741539357156,2.76
829,-0.401074702792221,-0.252137749247272,0.871199441787228,0.206873268650364,-1.85566620967844,-1.28933178175272,2.763333333333333
830,-0.405870743784649,-0.254402200499573,0.87171493407818,0.242002037197762,-1.99000486341109,-1.01468273359594,2.7666666666666666
831,-0.406387248654803,-0.248408936966162,0.875044848382055,0.151742133909529,-1.88444286512674,-0.819305363347898,2.77
832,-0.406851884023932,-0.246786066888569,0.876418829838003,0.131816641866676,-1.68185389261168,-0.712497400175847,2.7733333333333334
833,-0.411246512975775,-0.247109781156032,0.877091515183534,0.0987582333298189,-1.7327196239021,-0.605689437003767,2.776666666666667
834,-0.40814640264924,-0.24900699114286,0.879165077580188,0.114016513782968,-1.7030624780247,-0.354781666922361,2.78
835,-0.406336457612616,-0.250953466043454,0.88360299417864,0.143683757708364,-1.77803576701424,-0.25260080934044,2.783333333333333
836,-0.406370329422877,-0.249996031163432,0.888125955653097,0.146234760307186,-1.93746898028239,-0.417489592196357,2.7866666666666666
837,-0.40467147067479,-0.250756054605107,0.892002897485953,0.26613960284843,-1.95901332875827,-0.702681465467331,2.79
838,-0.404371852008988,-0.246821051602163,0.889150338778493,0.434449049658076,-2.15783933647423,-0.832503381838486,2.7933333333333334
839,-0.402062193463695,-0.243580774965422,0.880534224306162,0.291253489539257,-2.26123375622348,-0.548945114671661,2.796666666666667
840,-0.406469853495014,-0.247644306232561,0.869070062129756,0.10766643512124,-2.51549810548074,-0.498410568960061,2.8
841,-0.407679051285899,-0.251025184316131,0.865774405667757,0.228379905895574,-2.83763283558307,-0.904754266878798,2.8033333333333332
842,-0.408525887610414,-0.250881346962171,0.872699443117416,0.489483548622705,-3.05553094948612,-1.22241701724228,2.8066666666666666
843,-0.411739915506583,-0.25275209062852,0.880290847876217,0.415940415243968,-3.28646084076186,-0.851766142392278,2.81
844,-0.412545133539239,-0.252813956385094,0.890814260505727,0.162364736552577,-3.44934530868353,-0.235425620622006,2.8133333333333335
845,-0.414031218088488,-0.252158203281116,0.893710262045842,-0.0363163916380549,-3.39723056084931,0.0593151606955554,2.816666666666667
846,-0.411521140257485,-0.253430062041376,0.89095269272907,-0.292810804241179,-3.24895028825066,0.134746056574734,2.82
847,-0.409212063532312,-0.250452223634807,0.88411685091591,-0.259097293355498,-3.09205986569279,0.0535346571190571,2.8233333333333333
848,-0.406055510544912,-0.248881792965619,0.877396798986841,-0.194049010645893,-3.13813225027507,-0.343478177885624,2.8266666666666667
849,-0.402349799901879,-0.249867113233598,0.874363219817458,-0.0875268117887756,-3.21327119763428,-0.783952298077767,2.83
850,-0.402649577711492,-0.249305900243025,0.871031881329507,0.208432543650723,-3.06674041993231,-1.01887853170465,2.8333333333333335
851,-0.404262321016762,-0.246024334359578,0.870790063295726,0.391531909088525,-2.80015330824221,-1.0833740234375,2.8366666666666664
852,-0.407943719791835,-0.241346528201546,0.872190742693476,0.517064591508792,-2.71259597989258,-1.10496152956909,2.84
853,-0.407249432596869,-0.247058928411859,0.874675152641231,0.434191177964431,-2.56843513310741,-1.05000179617867,2.8433333333333333
854,-0.403296095057773,-0.250115602010726,0.878261791373097,0.355539508359487,-2.27703618129451,-0.918134801986511,2.8466666666666667
855,-0.401265822858072,-0.249697646529945,0.882277231503229,0.296878351901061,-2.0614439135303,-0.761836333325214,2.85
856,-0.39841064139156,-0.246598681793588,0.884972395234334,0.0671334665302644,-1.72663242213454,-0.648062941564803,2.8533333333333335
857,-0.399688318103415,-0.246772799959254,0.882830510266564,-0.175255629135721,-1.5914907416257,-0.6561279296875,2.8566666666666665
858,-0.403665087168028,-0.250841627562464,0.879365783969597,-0.298856219149179,-1.60479251642336,-0.807176387830744,2.86
859,-0.406525842259618,-0.245819257562541,0.880382273394437,-0.368157779577894,-1.44851235769858,-1.19233075335283,2.8633333333333333
860,-0.404680963054124,-0.245029287775034,0.881587664761803,-0.401104795913388,-1.5216923440026,-1.26172377581713,2.8666666666666667
861,-0.40457791103004,-0.247191144378385,0.882294492182169,-0.413920922922273,-1.68916314787358,-0.787656176545682,2.87
862,-0.40910494077309,-0.244304661130526,0.88132812493387,-0.396556090301872,-1.66145342682235,-0.444259463802646,2.8733333333333335
863,-0.407296800244047,-0.246413985752538,0.885760990803583,-0.20187748866759,-1.85910112144787,-0.383226341990045,2.8766666666666665
864,-0.405712311977676,-0.246753761525738,0.889270031474607,-0.0438625847172943,-2.05905719850503,-0.494746789737816,2.88
865,-0.406937875749121,-0.247354242328226,0.884956260995566,0.0897920500726638,-2.16146599396799,-0.69207404696583,2.8833333333333333
866,-0.402925967158596,-0.249406845565812,0.882078435475133,0.0645605937294713,-2.39488636333001,-0.538326574149465,2.8866666666666667
867,-0.405681973790797,-0.248035737142028,0.87631240236479,-0.0071882062369702,-2.60572342333326,-0.413881251393114,2.89
868,-0.406647395355445,-0.2501815538301,0.872135655283543,0.142870558745149,-2.50497104050223,-0.569112711518343,2.8933333333333335
869,-0.407134744651452,-0.252362987974355,0.873571200104817,0.341996137367324,-2.39839501670102,-0.834038833092464,2.8966666666666665
870,-0.412084651311123,-0.252838812540416,0.874486218924547,0.330277535455376,-2.35063568941793,-1.03218183233038,2.9
871,-0.412407633567381,-0.253003958464694,0.877125763581761,0.340220194784524,-2.03916984540935,-0.905587227467601,2.9033333333333333
872,-0.409208575496467,-0.247961868388481,0.882964144035241,0.411099842005458,-1.861572265625,-0.72967352521998,2.9066666666666667
873,-0.406646372514166,-0.247982624801371,0.888858161358624,0.463171866654396,-1.96216442975731,-0.540276976492691,2.91
874,-0.405324753169574,-0.2500787142233,0.887949563208729,0.582571144749368,-2.06082602055693,-0.4056921558354,2.9133333333333336
875,-0.406896331358817,-0.247009944387023,0.883002100824477,0.599545345128164,-2.1739922068943,-0.417390413373418,2.9166666666666665
876,-0.407065134457951,-0.24718404545502,0.878911806996222,0.525982456877836,-2.44864125505105,-0.321274725571119,2.92
877,-0.404414532235817,-0.249587522032109,0.877681753152581,0.440677055322185,-2.65864222191637,-0.160663559544014,2.9233333333333333
878,-0.402320705821868,-0.251296087658645,0.876839871199666,0.393154251648089,-2.70977540758509,-0.317787955910131,2.9266666666666667
879,-0.398438712371021,-0.244806512229655,0.876893723141353,0.407488951401483,-2.67836477207521,-0.632817891708687,2.93
880,-0.40032109202341,-0.244941390517774,0.878969182353345,0.3509521484375,-2.64156170867575,-0.979282883019773,2.933333333333333
881,-0.401984714829048,-0.251171509144503,0.878059781111213,0.221692605727835,-2.63079618680578,-1.05464153610956,2.9366666666666665
882,-0.400091269087259,-0.245953125202843,0.880012829107159,-0.103220482106066,-2.59758468010106,-0.525980910787867,2.94
883,-0.399957722833167,-0.243377986406968,0.882709942937969,-0.341076123686964,-2.39653768311454,-0.0502696276260721,2.9433333333333334
884,-0.404318730376771,-0.244169662292328,0.87600464341889,-0.560958723513675,-2.40817186938258,0.41103425166149,2.9466666666666668
885,-0.401096828926163,-0.24935981213469,0.866728141400263,-0.928057632305034,-2.81654472995461,0.745905731944437,2.95
886,-0.405930001521374,-0.256274770217932,0.867086730436658,-0.977499291034825,-3.02394534560639,-0.0051996987166191,2.953333333333333
887,-0.409232678221218,-0.25234716003562,0.875046574549845,-0.680413928374971,-2.9539297650375,-1.13439178180008,2.9566666666666666
888,-0.411707102048277,-0.245366486050868,0.882850362620491,-0.576219031650245,-3.13783573777901,-1.14190748517935,2.96
889,-0.416182798413365,-0.241958180697139,0.889512423514348,-0.698285275275446,-3.42960851746295,-0.339434433710157,2.9633333333333334
890,-0.415086766241133,-0.242882973935895,0.892789216056609,-0.640938813351749,-3.62343984330771,0.15788318088303,2.966666666666667
891,-0.410290519729133,-0.246730010259439,0.890693924111317,-0.575300035188601,-3.71151290153662,0.256757363636289,2.97
892,-0.40788299305343,-0.249908060071624,0.885934488459525,-0.66330342069076,-3.51051625687556,-0.126348451446171,2.973333333333333
893,-0.409490999219498,-0.251515061412985,0.882720769707558,-0.492012158902186,-3.33540864656826,-0.658663178904552,2.9766666666666666
894,-0.405252891668588,-0.244751495510797,0.876086707851176,-0.512325679508877,-3.26093591007058,-1.16481424322286,2.98
895,-0.405638353070566,-0.243975083211346,0.867896065046223,-0.798809279001053,-3.21151966830021,-1.48727650423771,2.9833333333333334
896,-0.406247514458055,-0.246815267269987,0.869478758153014,-0.846406855003365,-2.84658475076253,-1.17255578266108,2.986666666666667
897,-0.40163785975009,-0.244368922885696,0.870310609094794,-0.88318397932606,-2.34724503341584,-0.89479119579068,2.99
898,-0.404536267645229,-0.246206037189554,0.871507904956029,-0.829458071583969,-2.11485199430662,-0.970303971020992,2.993333333333333
899,-0.405632001857895,-0.248979540112338,0.878588844424671,-0.696562221310903,-1.87423376188399,-0.888669475972445,2.9966666666666666
900,-0.399721307494003,-0.251507786850858,0.881920278871328,-0.727842150972195,-1.82113543095485,-0.981745896201329,3.0
901,-0.396875695462877,-0.251118111372374,0.887272603781326,-0.772860057564625,-1.76834728248053,-1.3317756299398,3.0033333333333334
902,-0.391498093232452,-0.247983661593159,0.886642124329796,-0.911700688739327,-1.72774838075866,-1.21751934661836,3.006666666666667
903,-0.394632123658304,-0.247043339324365,0.878119150248843,-1.0278377709676,-1.93678900781692,-0.8123817561659,3.01
904,-0.40233187118871,-0.246630894116697,0.873778687540281,-1.0383534210561,-2.11913871176079,-0.726167206413781,3.013333333333333
905,-0.404436524639023,-0.246167122446245,0.874721902825217,-1.19552373149787,-1.9793815966227,-0.7879581274699,3.0166666666666666
906,-0.40396857475322,-0.248689392759684,0.87974786546299,-1.30050228700867,-1.76376486266377,-0.892180918174575,3.02
907,-0.402546201405409,-0.250169103617769,0.881340955008469,-1.47368715131902,-1.81121347862073,-0.735332046047319,3.0233333333333334
908,-0.402646153855512,-0.250489815247676,0.881809508504237,-1.62994097779745,-1.78452255550638,-0.54931640625,3.026666666666667
909,-0.406616568634871,-0.251121411282949,0.882304722590325,-1.69998025452372,-1.77794644860567,-0.520631796051708,3.03
910,-0.405203551521512,-0.252536460454788,0.88463580780182,-1.6095047232693,-1.89300632771335,-0.567163928045325,3.033333333333333
911,-0.402109915949702,-0.251854326632274,0.883022583790933,-1.46576023396335,-1.89117335978665,-0.670470234786646,3.0366666666666666
912,-0.407525640714746,-0.251517731901166,0.88150534709195,-1.43524265583836,-2.08662744655177,-0.715330118010784,3.04
913,-0.411314479453878,-0.251935752167872,0.876390601887794,-1.55531928125442,-1.99480110484243,-0.7189960538642,3.0433333333333334
914,-0.414072992112876,-0.252599935692091,0.871695405711393,-1.63727284950427,-1.56281187211848,-0.930464694497985,3.046666666666667
915,-0.410523806233325,-0.253301206339328,0.873615012439626,-1.42731573848265,-1.4495849609375,-1.37038084457772,3.05
916,-0.404582724664833,-0.253149055890147,0.873319227099864,-1.07377485731238,-1.42090035073921,-1.61376570477158,3.0533333333333332
917,-0.413129816776364,-0.253876980139953,0.875146642155447,-0.810548788239216,-1.22361329604737,-1.67129564432543,3.0566666666666666
918,-0.416974112324453,-0.250816759842752,0.877008362773448,-0.656288648844725,-1.1236514868449,-1.49827149917228,3.06
919,-0.413964294663794,-0.247233707857984,0.877553588574265,-0.411231539881404,-1.220703125,-1.22620202878012,3.0633333333333335
920,-0.412346222257549,-0.250631412031904,0.871793128247326,-0.182349703943875,-1.40715309128895,-0.9857273396335,3.066666666666667
921,-0.407930214622404,-0.255724480307461,0.871567638319334,0.132585962588473,-1.67480086102158,-0.716407321131404,3.07
922,-0.40775708970741,-0.257917462660499,0.875238998186383,0.45134828413155,-1.83989808881905,-0.55206585814005,3.0733333333333333
923,-0.4131167089341,-0.253543060102561,0.876331821124815,0.557404042762927,-1.93878269490085,-0.460513123765062,3.0766666666666667
924,-0.411890562124445,-0.247657159509305,0.882224974578547,0.556487558799571,-2.02300355756899,-0.275735406245652,3.08
925,-0.408286322728749,-0.24744228810664,0.88595763475501,0.471350212168025,-2.22945545189447,-0.0001607191572251,3.0833333333333335
926,-0.407724652156157,-0.249268370089822,0.887304925551038,0.394895547698292,-2.30591011636421,0.0943021862650615,3.0866666666666664
927,-0.401251973011767,-0.251946050972404,0.885919754023158,0.290994195308075,-2.35244224835782,-0.0904755312544248,3.09
928,-0.398419542372975,-0.250292302341095,0.882745583836874,0.216211779607804,-2.56331584334274,-0.416248286189754,3.0933333333333333
929,-0.402664731776833,-0.247785653026154,0.880017151178566,0.254977713403004,-2.73666142681035,-0.581666952301716,3.0966666666666667
930,-0.40693759579408,-0.249796711432621,0.872822857081831,0.1123104272176,-2.99223418586225,-0.47760488075425,3.1
931,-0.41053029113293,-0.253451126670511,0.866196004942207,0.151510687504388,-3.24920558634915,-0.798313058401092,3.1033333333333335
